index,roll,pitch,yaw,accx,accy,accz,gyrox,gyroy,gyroz
0,-9.15521,12.3543,-158.421,-2.22202,-1.53975,10.0259,0.00367642,0.000972733,0.000284962
1,-9.15583,12.3561,-158.424,-2.14507,-1.56398,9.6912,-0.00058464,-0.00435359,0.0151987
2,-9.15555,12.3568,-158.423,-2.18116,-1.51611,9.78084,-0.0016499,-0.00328832,0.00348076
3,-9.15473,12.3574,-158.423,-2.16893,-1.56555,9.78756,-0.00058464,-0.00328832,-0.00184557
4,-9.15417,12.3576,-158.423,-2.15593,-1.49907,9.82597,-0.00058464,-0.00435359,0.00241549
5,-9.15256,12.3574,-158.423,-2.17957,-1.54698,9.77514,-0.00058464,0.00523379,0.000284962
6,-9.15036,12.3595,-158.424,-2.17759,-1.53244,9.75892,-0.0016499,-0.0011578,-0.00291083
7,-9.14964,12.3601,-158.424,-2.16904,-1.58904,9.76925,-0.00058464,-0.00541885,-0.00291083
8,-9.1494,12.3608,-158.424,-2.18686,-1.58092,9.72422,-0.0048457,-0.00967991,0.000284962
9,-9.14923,12.3609,-158.424,-2.1579,-1.56204,9.74394,-0.00058464,0.00310326,-0.000780302
10,-9.14807,12.362,-158.424,-2.17943,-1.56113,9.70978,-0.00271517,0.00310326,-0.00291083
11,-9.14653,12.3618,-158.425,-2.13254,-1.55559,9.73643,-0.00058464,0.00416853,-0.00930242
12,-9.14536,12.3612,-158.425,-2.16357,-1.58375,9.7656,-0.00271517,0.000972733,0.00135023
13,-9.14421,12.3616,-158.425,-2.17788,-1.57052,9.75682,-0.00058464,-0.00541885,-0.00504136
14,-9.14248,12.361,-158.425,-2.16186,-1.57139,9.81461,-0.00058464,0.000972733,0.000284962
15,-9.14233,12.3603,-158.424,-2.11772,-1.51427,9.72206,-0.00591096,0.00949485,0.00241549
16,-9.14325,12.3612,-158.425,-2.19787,-1.59337,9.7442,-0.00697623,0.00736432,0.00135023
17,-9.14369,12.3619,-158.425,-2.16588,-1.63285,9.79788,0.000480625,-0.0011578,-0.000780302
18,-9.14713,12.3612,-158.426,-2.14738,-1.59335,9.76351,0.00261115,0.00310326,-0.00184557
19,-9.14964,12.3629,-158.427,-2.19982,-1.60966,9.74773,-0.00271517,0.00310326,0.00561128
20,-9.15132,12.3635,-158.428,-2.11886,-1.63251,9.78098,-0.0016499,0.00310326,0.00348076
21,-9.1529,12.3627,-158.428,-2.18897,-1.6136,9.7385,0.00687221,0.000972733,0.00348076
22,-9.15415,12.363,-158.426,-2.22754,-1.66171,9.8093,0.00580695,0.00949485,0.0141334
23,-9.15433,12.363,-158.428,-2.16334,-1.57267,9.72943,0.00367642,-0.00328832,-0.00184557
24,-9.15427,12.363,-158.427,-2.17771,-1.54696,9.76062,0.00580695,-0.00435359,-0.00291083
25,-9.1523,12.3621,-158.426,-2.10017,-1.55327,9.77592,0.000480625,0.00416853,-0.000780302
26,-9.1512,12.3633,-158.426,-2.19955,-1.57699,9.74435,0.00580695,0.002038,0.00348076
27,-9.15025,12.3628,-158.426,-2.17042,-1.53275,9.77151,-0.00058464,-0.00967991,-0.00291083
28,-9.14889,12.3612,-158.426,-2.11622,-1.55065,9.72901,-0.00271517,-0.00648412,-0.00930242
29,-9.14735,12.3615,-158.427,-2.1509,-1.58234,9.76183,0.00367642,0.000972733,0.00135023
30,-9.14619,12.361,-158.426,-2.15789,-1.56202,9.74032,-0.00271517,-0.00541885,0.00454602
31,-9.14596,12.3613,-158.427,-2.17625,-1.57981,9.78391,-0.00697623,-0.0107452,-0.000780302
32,-9.14447,12.3616,-158.428,-2.19387,-1.54808,9.73362,-0.00271517,0.002038,-0.00184557
33,-9.14543,12.3623,-158.428,-2.19612,-1.60966,9.72593,0.000480625,0.00949485,-0.00291083
34,-9.14566,12.3631,-158.428,-2.17624,-1.57621,9.78938,0.00261115,0.00629906,-0.00504136
35,-9.14712,12.3632,-158.428,-2.18187,-1.5871,9.82199,0.000480625,0.00416853,0.00135023
36,-9.14979,12.3637,-158.428,-2.18337,-1.5848,9.74771,0.00261115,0.002038,-0.00291083
37,-9.14851,12.3626,-158.429,-2.17418,-1.55796,9.75868,0.000480625,0.00736432,-0.00930242
38,-9.14833,12.3622,-158.429,-2.09136,-1.56823,9.80289,-0.0016499,-0.00648412,-0.000780302
39,-9.14825,12.3618,-158.429,-2.14342,-1.56427,9.73106,-0.00591096,0.000972733,-0.00717189
40,-9.14878,12.3616,-158.429,-2.12948,-1.60315,9.78497,-0.00271517,0.000972733,-0.00504136
41,-9.14983,12.3619,-158.429,-2.19049,-1.57904,9.73334,0.00261115,-0.0011578,-0.00184557
42,-9.15059,12.362,-158.429,-2.14399,-1.61712,9.77416,0.00154589,0.00949485,-0.00184557
43,-9.1517,12.3626,-158.429,-2.13859,-1.61194,9.78864,0.00261115,0.00523379,-0.00291083
44,-9.15048,12.3616,-158.429,-2.13102,-1.58476,9.7525,0.00261115,0.00416853,-0.000780302
45,-9.15126,12.3609,-158.427,-2.14419,-1.65508,9.75031,0.00154589,0.00736432,-0.00504136
46,-9.15387,12.3616,-158.427,-2.16034,-1.62569,9.78155,0.00367642,-0.00328832,0.00241549
47,-9.1533,12.3614,-158.427,-2.12889,-1.53592,9.76553,0.00580695,0.00416853,-0.00291083
48,-9.15137,12.361,-158.427,-2.13579,-1.51011,9.735,-0.0016499,0.00416853,0.00241549
49,-9.14957,12.3599,-158.428,-2.18669,-1.51968,9.80263,-0.0016499,0.000972733,-0.00184557
50,-9.14875,12.3615,-158.428,-2.18494,-1.55391,9.74797,0.00687221,-0.00435359,-0.00291083
51,-9.1474,12.3625,-158.427,-2.1253,-1.53069,9.78184,0.00793748,-0.00648412,-0.00291083
52,-9.14472,12.362,-158.427,-2.13094,-1.5703,9.76167,-0.00591096,-0.0011578,0.00561128
53,-9.14413,12.362,-158.427,-2.16495,-1.54003,9.7442,-0.00697623,-0.00648412,-0.00184557
54,-9.14421,12.3618,-158.427,-2.18493,-1.55928,9.73524,0.00261115,-0.00967991,-0.00291083
55,-9.1434,12.3619,-158.427,-2.18292,-1.53751,9.7245,0.00367642,-0.00328832,0.00241549
56,-9.14421,12.3613,-158.427,-2.18335,-1.57581,9.76047,-0.0048457,0.002038,-0.00184557
57,-9.14592,12.3617,-158.428,-2.15241,-1.54059,9.7676,-0.0016499,0.000972733,0.00135023
58,-9.14759,12.3613,-158.429,-2.14408,-1.63697,9.75589,-0.00271517,0.00310326,0.00241549
59,-9.14917,12.3611,-158.429,-2.16014,-1.57517,9.83088,0.00261115,-0.00435359,0.00454602
60,-9.14989,12.3617,-158.429,-2.17819,-1.60326,9.77107,0.00154589,-0.00328832,0.00454602
61,-9.15055,12.3613,-158.431,-2.20305,-1.5462,9.77544,0.000480625,-0.0011578,0.00454602
62,-9.15015,12.3616,-158.431,-2.18136,-1.56125,9.74243,0.000480625,0.00310326,0.00241549
63,-9.1498,12.3614,-158.431,-2.20119,-1.52108,9.81367,0.00367642,-0.00435359,-0.0039761
64,-9.14867,12.3611,-158.431,-2.13597,-1.51933,9.76212,-0.00271517,0.00310326,-0.00291083
65,-9.14853,12.3612,-158.431,-2.12536,-1.56486,9.72902,-0.00271517,-0.00648412,-0.0039761
66,-9.14976,12.361,-158.431,-2.17854,-1.65938,9.75071,-0.00058464,-0.00328832,-0.00184557
67,-9.14955,12.3601,-158.43,-2.13613,-1.55006,9.74195,0.00261115,0.000972733,0.000284962
68,-9.1498,12.36,-158.431,-2.15986,-1.54785,9.81114,0.000480625,0.00416853,0.00880708
69,-9.1501,12.3605,-158.43,-2.14166,-1.57156,9.72736,0.000480625,0.0105601,0.00454602
70,-9.14888,12.3612,-158.431,-2.16338,-1.55478,9.77488,-0.00271517,-0.00754938,-0.00504136
71,-9.14843,12.3622,-158.431,-2.23914,-1.55395,9.75408,0.00474168,0.00310326,0.00561128
72,-9.14817,12.3615,-158.431,-2.16703,-1.57086,9.75305,0.00154589,-0.0011578,0.000284962
73,-9.1471,12.3623,-158.431,-2.1635,-1.58545,9.74383,0.0132638,0.000972733,0.00561128
74,-9.14608,12.362,-158.431,-2.14514,-1.55332,9.73116,0.00261115,-0.0011578,0.000284962
75,-9.14544,12.3603,-158.431,-2.14711,-1.55708,9.7656,-0.0016499,0.002038,-0.00184557
76,-9.14442,12.3598,-158.431,-2.1992,-1.52805,9.75197,0.00154589,-0.00967991,0.000284962
77,-9.14407,12.3588,-158.43,-2.11468,-1.53673,9.82517,-0.00058464,0.00310326,-0.00184557
78,-9.14492,12.3587,-158.43,-2.1925,-1.60439,9.73499,0.00154589,0.00842958,0.000284962
79,-9.14592,12.3592,-158.431,-2.18193,-1.60692,9.79828,0.00261115,0.00629906,0.00348076
80,-9.14746,12.3603,-158.431,-2.16699,-1.56542,9.75309,0.00261115,0.00736432,-0.000780302
81,-9.14723,12.3604,-158.43,-2.18231,-1.66307,9.78335,0.000480625,-0.00754938,-0.0039761
82,-9.14791,12.3605,-158.43,-2.17804,-1.58869,9.76212,-0.00378043,-0.00328832,-0.00184557
83,-9.14829,12.3603,-158.431,-2.15316,-1.60447,9.836,-0.00591096,-0.0011578,-0.00184557
84,-9.14871,12.3592,-158.431,-2.12242,-1.62156,9.79018,0.00154589,-0.00541885,0.00135023
85,-9.15048,12.3581,-158.431,-2.11312,-1.60533,9.75393,0.00474168,0.00310326,0.00667655
86,-9.15095,12.3579,-158.431,-2.16658,-1.51819,9.74076,-0.0048457,-0.0011578,0.00241549
87,-9.14871,12.3572,-158.432,-2.12889,-1.56642,9.70548,0.00367642,-0.0011578,-0.00717189
88,-9.14726,12.3562,-158.432,-2.15941,-1.53824,9.71514,-0.00058464,0.00523379,0.000284962
89,-9.14757,12.3562,-158.432,-2.19608,-1.55578,9.82241,-0.00378043,0.00523379,0.00348076
90,-9.14653,12.3553,-158.432,-2.17061,-1.56172,9.76223,-0.00058464,0.000972733,-0.0039761
91,-9.14747,12.3554,-158.431,-2.19072,-1.59372,9.76224,0.00261115,0.00736432,0.00774181
92,-9.14704,12.3556,-158.431,-2.11976,-1.56298,9.68546,-0.0016499,-0.00328832,-0.000780302
93,-9.14715,12.355,-158.431,-2.16164,-1.54955,9.80209,-0.00058464,-0.0128757,-0.00504136
94,-9.1471,12.3539,-158.432,-2.18482,-1.55373,9.71715,0.00474168,0.002038,0.000284962
95,-9.1462,12.3535,-158.431,-2.14714,-1.55893,9.77102,0.000480625,0.0105601,0.000284962
96,-9.14709,12.3534,-158.431,-2.23378,-1.56318,9.75032,-0.0016499,0.00310326,0.00348076
97,-9.14848,12.3526,-158.432,-2.1349,-1.60476,9.7814,-0.00271517,0.00416853,0.000284962
98,-9.14691,12.354,-158.431,-2.19027,-1.53925,9.7554,-0.00058464,-0.00541885,-0.00504136
99,-9.14689,12.3539,-158.432,-2.13476,-1.5956,9.76515,0.00367642,0.00416853,0.00454602
100,-9.14652,12.3537,-158.432,-2.19087,-1.58675,9.81486,0.000480625,-0.0011578,-0.00184557
101,-9.14846,12.3539,-158.433,-2.16904,-1.61057,9.7274,-0.00058464,0.00416853,-0.00717189
102,-9.14884,12.3544,-158.432,-2.1834,-1.5974,9.72949,-0.00591096,0.000972733,0.00774181
103,-9.14872,12.3544,-158.432,-2.18498,-1.55038,9.76612,-0.00058464,0.002038,0.000284962
104,-9.14878,12.354,-158.432,-2.15828,-1.5931,9.78178,-0.00271517,0.00310326,-0.00291083
105,-9.14822,12.3554,-158.433,-2.19752,-1.56596,9.70815,0.00261115,-0.00648412,0.00667655
106,-9.148,12.3556,-158.433,-2.16355,-1.57835,9.77289,0.00580695,0.00949485,0.00135023
107,-9.14888,12.3575,-158.432,-2.11128,-1.59816,9.7594,-0.0016499,-0.00435359,0.000284962
108,-9.1486,12.3574,-158.432,-2.09661,-1.57499,9.74671,-0.00271517,0.00523379,0.00987234
109,-9.14742,12.3574,-158.431,-2.17242,-1.54732,9.79137,0.00261115,-0.0107452,0.000284962
110,-9.14738,12.3578,-158.432,-2.23745,-1.53982,9.81217,0.00367642,0.002038,0.00667655
111,-9.14674,12.3584,-158.433,-2.13309,-1.59406,9.80321,0.00261115,0.00736432,-0.00291083
112,-9.14542,12.3583,-158.431,-2.1783,-1.59266,9.82191,0.00367642,0.00842958,0.00348076
113,-9.14453,12.3576,-158.431,-2.17664,-1.63419,9.77625,-0.00271517,-0.0011578,0.00135023
114,-9.14459,12.357,-158.431,-2.15268,-1.58762,9.74368,0.000480625,0.00523379,0.00348076
115,-9.14564,12.3565,-158.431,-2.14756,-1.63308,9.73058,-0.00591096,-0.00435359,0.00135023
116,-9.14622,12.3553,-158.43,-2.1201,-1.57603,9.74881,0.000480625,0.002038,0.00454602
117,-9.14876,12.3542,-158.43,-2.11855,-1.5944,9.77765,0.00261115,-0.00435359,-0.000780302
118,-9.14879,12.3547,-158.43,-2.234,-1.58503,9.76465,-0.0016499,0.00949485,0.00241549
119,-9.14844,12.3537,-158.429,-2.17259,-1.5942,9.74207,0.000480625,0.00310326,-0.000780302
120,-9.14887,12.3522,-158.43,-2.16584,-1.6346,9.78518,-0.0016499,-0.00541885,-0.000780302
121,-9.15118,12.3516,-158.431,-2.16322,-1.55993,9.72227,-0.0048457,0.00523379,0.00135023
122,-9.15154,12.351,-158.431,-2.14906,-1.57517,9.7673,-0.0016499,-0.00328832,0.00348076
123,-9.15123,12.3511,-158.431,-2.20131,-1.58044,9.7244,0.00154589,0.00416853,0.00561128
124,-9.15197,12.353,-158.431,-2.22663,-1.56531,9.76471,-0.00058464,-0.00328832,-0.00717189
125,-9.15268,12.3534,-158.431,-2.14397,-1.60812,9.78692,-0.0016499,-0.00754938,-0.00184557
126,-9.15285,12.3535,-158.431,-2.10737,-1.56017,9.75602,0.00261115,-0.0011578,-0.0039761
127,-9.15192,12.352,-158.43,-2.13643,-1.58995,9.73984,0.00261115,0.00416853,0.000284962
128,-9.15165,12.3551,-158.43,-2.1584,-1.62017,9.75801,0.00261115,0.00416853,-0.000780302
129,-9.15134,12.356,-158.43,-2.16873,-1.56168,9.74408,0.000480625,0.00736432,-0.0039761
130,-9.15116,12.3562,-158.43,-2.15461,-1.60748,9.73812,-0.00378043,-0.00328832,0.00241549
131,-9.15171,12.3568,-158.43,-2.1778,-1.58117,9.71504,-0.00271517,-0.00328832,-0.00504136
132,-9.15235,12.3561,-158.43,-2.14178,-1.57533,9.75271,-0.0048457,-0.00541885,-0.0039761
133,-9.15186,12.3551,-158.43,-2.11308,-1.5963,9.76125,-0.00058464,-0.00328832,-0.00184557
134,-9.15124,12.3556,-158.43,-2.13821,-1.55398,9.80539,-0.00058464,-0.0011578,0.00348076
135,-9.15108,12.356,-158.43,-2.15775,-1.54389,9.74227,-0.00591096,0.0105601,-0.00291083
136,-9.15081,12.3552,-158.431,-2.13824,-1.57556,9.77079,-0.00058464,0.00523379,0.00135023
137,-9.14965,12.3554,-158.431,-2.17415,-1.55612,9.75507,-0.00058464,0.000972733,0.000284962
138,-9.15017,12.3547,-158.431,-2.15478,-1.62208,9.75251,0.00154589,-0.00648412,0.00454602
139,-9.14953,12.3543,-158.431,-2.1649,-1.54176,9.72787,0.00154589,0.00736432,-0.000780302
140,-9.15079,12.3541,-158.431,-2.13294,-1.59385,9.76514,-0.00271517,0.00416853,0.00135023
141,-9.15161,12.3546,-158.432,-2.22359,-1.62546,9.79322,-0.00058464,0.000972733,0.00454602
142,-9.15275,12.3545,-158.432,-2.16382,-1.62537,9.74716,0.000480625,-0.00328832,-0.000780302
143,-9.15335,12.3534,-158.432,-2.16149,-1.53319,9.79678,0.00154589,-0.00435359,-0.0039761
144,-9.15322,12.3543,-158.432,-2.18212,-1.65203,9.75624,-0.0048457,0.00736432,-0.0039761
145,-9.15412,12.3546,-158.432,-2.12205,-1.57438,9.78872,-0.00378043,-0.00328832,0.00241549
146,-9.15464,12.3545,-158.432,-2.17251,-1.60127,9.70757,-0.00058464,-0.0011578,-0.00184557
147,-9.1551,12.3554,-158.433,-2.16007,-1.56968,9.82186,-0.0016499,0.0105601,0.00454602
148,-9.15609,12.3555,-158.432,-2.14012,-1.59713,9.74708,0.00474168,0.002038,0.000284962
149,-9.15568,12.356,-158.431,-2.1799,-1.57795,9.79847,-0.00271517,0.000972733,0.00774181
150,-9.15686,12.3551,-158.431,-2.14026,-1.59194,9.79244,-0.00058464,0.00416853,0.00241549
151,-9.15704,12.3547,-158.431,-2.18863,-1.56287,9.74976,0.00154589,-0.0011578,0.00561128
152,-9.15603,12.3546,-158.431,-2.10932,-1.55136,9.8123,-0.00378043,0.000972733,-0.000780302
153,-9.15784,12.3552,-158.431,-2.14917,-1.60762,9.7308,-0.00058464,0.00736432,0.00348076
154,-9.15645,12.3555,-158.431,-2.1941,-1.55559,9.77888,-0.00271517,-0.0011578,0.000284962
155,-9.1551,12.3554,-158.431,-2.12234,-1.61069,9.79207,-0.00058464,0.00416853,0.00348076
156,-9.15444,12.3562,-158.431,-2.1977,-1.56622,9.75528,0.00261115,-0.0011578,-0.0039761
157,-9.15469,12.3562,-158.431,-2.1346,-1.56128,9.79079,0.00580695,0.00310326,-0.000780302
158,-9.15561,12.3567,-158.431,-2.19057,-1.563,9.78422,0.00580695,0.00523379,-0.0039761
159,-9.15563,12.3566,-158.431,-2.14398,-1.60634,9.79237,0.00261115,-0.00328832,0.00241549
160,-9.15632,12.3567,-158.432,-2.16533,-1.57287,9.77658,-0.00058464,0.000972733,-0.00717189
161,-9.15528,12.3561,-158.431,-2.13118,-1.58499,9.79238,0.00793748,0.00629906,0.00667655
162,-9.15436,12.3559,-158.431,-2.1524,-1.52801,9.78945,-0.00697623,-0.0011578,-0.000780302
163,-9.15457,12.3571,-158.432,-2.17779,-1.5704,9.73506,-0.0048457,-0.00648412,0.00135023
164,-9.15479,12.3567,-158.431,-2.13792,-1.54998,9.73835,0.00687221,0.002038,0.00454602
165,-9.15508,12.3561,-158.432,-2.13112,-1.57594,9.79607,0.000480625,0.000972733,0.000284962
166,-9.15511,12.3555,-158.432,-2.09261,-1.54227,9.71247,-0.0016499,0.00523379,0.00241549
167,-9.15504,12.356,-158.433,-2.15663,-1.60235,9.80344,0.000480625,-0.00648412,-0.00823715
168,-9.15642,12.3557,-158.433,-2.17853,-1.63245,9.80167,-0.00058464,-0.00328832,0.00241549
169,-9.15619,12.356,-158.433,-2.18712,-1.58129,9.78948,-0.00058464,0.000972733,0.00667655
170,-9.15621,12.3555,-158.434,-2.11818,-1.5526,9.76527,-0.00378043,-0.0107452,-0.0103677
171,-9.15563,12.3547,-158.434,-2.15133,-1.6278,9.78142,-0.0048457,0.0105601,0.00667655
172,-9.15656,12.3548,-158.434,-2.18373,-1.59788,9.81468,0.00154589,0.002038,0.000284962
173,-9.15537,12.3544,-158.435,-2.16884,-1.53672,9.82222,-0.00591096,0.00310326,0.00241549
174,-9.15405,12.356,-158.434,-2.17962,-1.55422,9.77146,0.00474168,0.000972733,0.00454602
175,-9.15376,12.3567,-158.434,-2.15782,-1.53861,9.77131,-0.00058464,-0.0011578,-0.0039761
176,-9.1536,12.3558,-158.435,-2.18697,-1.5739,9.76597,0.000480625,0.00416853,0.00135023
177,-9.15261,12.3555,-158.435,-2.15818,-1.58397,9.77278,-0.00271517,-0.00328832,0.000284962
178,-9.15303,12.3553,-158.435,-2.16665,-1.52905,9.73705,0.000480625,-0.00435359,-0.00291083
179,-9.15382,12.3559,-158.435,-2.18351,-1.59398,9.76577,-0.00058464,-0.00541885,0.00241549
180,-9.15448,12.3565,-158.435,-2.18903,-1.58856,9.80213,-0.00058464,0.00416853,0.00135023
181,-9.15426,12.3576,-158.435,-2.14195,-1.56839,9.80895,0.00474168,-0.0011578,-0.0039761
182,-9.15344,12.3583,-158.436,-2.24464,-1.53416,9.81593,-0.0016499,0.0105601,-0.00184557
183,-9.1525,12.3587,-158.436,-2.19226,-1.58431,9.71339,-0.0016499,0.00736432,0.000284962
184,-9.15219,12.359,-158.436,-2.11638,-1.53832,9.79436,0.00474168,0.000972733,0.000284962
185,-9.15243,12.3596,-158.436,-2.17975,-1.57774,9.76041,-0.00058464,-0.00328832,0.00135023
186,-9.15124,12.3585,-158.436,-2.14539,-1.58418,9.73456,-0.00591096,0.00310326,0.00135023
187,-9.15195,12.3578,-158.435,-2.15136,-1.62606,9.79413,0.00367642,-0.00435359,0.00135023
188,-9.15092,12.3579,-158.435,-2.1707,-1.57441,9.76032,0.00261115,0.00416853,0.000284962
189,-9.15119,12.3591,-158.435,-2.15969,-1.53505,9.79311,-0.00058464,-0.00435359,-0.00291083
190,-9.15052,12.3587,-158.435,-2.17368,-1.48727,9.77009,-0.0016499,-0.00328832,-0.000780302
191,-9.15006,12.3582,-158.435,-2.19935,-1.55517,9.73545,-0.0048457,-0.00328832,0.000284962
192,-9.14891,12.3583,-158.436,-2.1546,-1.5662,9.81638,0.00580695,0.00310326,0.00348076
193,-9.14882,12.3584,-158.437,-2.1866,-1.53211,9.75359,-0.00058464,-0.00648412,0.00561128
194,-9.14878,12.3598,-158.436,-2.17043,-1.53994,9.75877,-0.00058464,0.002038,0.00348076
195,-9.14835,12.3591,-158.436,-2.15235,-1.5423,9.74946,-0.00058464,0.000972733,-0.0039761
196,-9.14763,12.3595,-158.435,-2.19447,-1.59739,9.79126,-0.0048457,0.0105601,0.0109376
197,-9.14739,12.3598,-158.436,-2.22077,-1.54872,9.68501,-0.0048457,0.002038,0.00454602
198,-9.14689,12.3602,-158.436,-2.16776,-1.62932,9.82512,0.00367642,0.00523379,0.00454602
199,-9.14694,12.3581,-158.436,-2.13258,-1.53592,9.78733,0.00580695,0.00523379,0.00454602
200,-9.14699,12.3575,-158.436,-2.1565,-1.61112,9.7508,-0.00697623,0.00523379,0.00348076
201,-9.14756,12.357,-158.436,-2.14383,-1.58997,9.78525,0.00261115,-0.0011578,0.00241549
202,-9.14747,12.3561,-158.435,-2.19803,-1.61334,9.74586,0.00261115,0.002038,0.00348076
203,-9.14804,12.356,-158.435,-2.12761,-1.59953,9.77591,-0.0048457,0.00416853,-0.00184557
204,-9.14896,12.356,-158.435,-2.18701,-1.56858,9.78776,-0.00058464,0.000972733,-0.00291083
205,-9.14975,12.3559,-158.435,-2.13881,-1.63378,9.80116,-0.00271517,0.000972733,-0.000780302
206,-9.15024,12.3565,-158.436,-2.23251,-1.5945,9.82619,0.00154589,-0.0118104,-0.0039761
207,-9.14988,12.3571,-158.436,-2.15826,-1.57153,9.81819,-0.0048457,-0.00328832,0.00667655
208,-9.14891,12.3573,-158.435,-2.18534,-1.60113,9.75849,-0.00591096,-0.0011578,-0.00504136
209,-9.14963,12.3574,-158.435,-2.12002,-1.57772,9.72523,0.00580695,-0.0107452,0.00241549
210,-9.14961,12.356,-158.434,-2.15262,-1.57318,9.75648,0.00474168,-0.00328832,-0.00291083
211,-9.1488,12.3548,-158.433,-2.14919,-1.57356,9.80356,0.00154589,0.00523379,0.00241549
212,-9.14847,12.3544,-158.433,-2.18316,-1.55041,9.76066,0.000480625,0.00310326,0.00135023
213,-9.1485,12.3539,-158.433,-2.17808,-1.58876,9.77299,0.00154589,0.00416853,-0.00184557
214,-9.14974,12.3548,-158.433,-2.15642,-1.59127,9.76908,-0.00058464,0.00416853,0.00135023
215,-9.14928,12.3545,-158.433,-2.1758,-1.52354,9.7789,-0.00058464,0.00523379,-0.00184557
216,-9.14889,12.3534,-158.433,-2.12038,-1.59257,9.78675,-0.00058464,-0.00328832,-0.0039761
217,-9.14796,12.3545,-158.434,-2.24297,-1.57387,9.77029,-0.00378043,0.00523379,-0.00504136
218,-9.14785,12.3541,-158.434,-2.12742,-1.58131,9.76154,0.00261115,-0.0011578,-0.00823715
219,-9.14726,12.3544,-158.434,-2.18699,-1.59546,9.72774,-0.00378043,0.00416853,0.00241549
220,-9.1475,12.3545,-158.434,-2.1436,-1.58067,9.74544,-0.00804149,0.00629906,0.00454602
221,-9.14739,12.3556,-158.434,-2.22531,-1.61272,9.79696,-0.00058464,-0.00967991,-0.00823715
222,-9.14811,12.3555,-158.435,-2.196,-1.56822,9.777,0.00261115,-0.00541885,-0.000780302
223,-9.14811,12.3547,-158.435,-2.14213,-1.60094,9.79058,-0.00271517,-0.00648412,-0.000780302
224,-9.15044,12.3542,-158.435,-2.18735,-1.61212,9.78743,-0.00271517,0.00949485,0.00241549
225,-9.15178,12.3535,-158.435,-2.15292,-1.61128,9.75801,0.000480625,0.000972733,-0.000780302
226,-9.15381,12.3541,-158.434,-2.16169,-1.57474,9.76565,-0.00378043,0.00736432,-0.000780302
227,-9.15404,12.3541,-158.435,-2.17616,-1.58327,9.75488,-0.00697623,0.000972733,-0.00823715
228,-9.15376,12.3556,-158.436,-2.16141,-1.53846,9.76592,0.00580695,-0.0011578,0.00454602
229,-9.15342,12.3559,-158.436,-2.13126,-1.62278,9.73771,0.00154589,-0.0011578,0.000284962
230,-9.1531,12.3554,-158.436,-2.23163,-1.51252,9.76337,-0.00378043,0.00736432,0.00561128
231,-9.15275,12.3544,-158.436,-2.09854,-1.5787,9.77208,0.00154589,-0.0011578,-0.0039761
232,-9.15187,12.3542,-158.436,-2.18267,-1.48154,9.77206,0.00474168,0.00310326,0.00454602
233,-9.15319,12.3551,-158.435,-2.10936,-1.56934,9.78498,0.00474168,0.00310326,0.000284962
234,-9.15255,12.3541,-158.435,-2.11469,-1.58519,9.73235,0.00154589,0.0116254,0.00454602
235,-9.15103,12.3517,-158.434,-2.14854,-1.52957,9.72232,-0.0016499,-0.00648412,0.00135023
236,-9.15009,12.3517,-158.434,-2.17099,-1.61609,9.75276,-0.00378043,-0.00541885,0.00241549
237,-9.15014,12.3525,-158.433,-2.17606,-1.55621,9.78228,-0.0048457,0.002038,0.00135023
238,-9.14931,12.3526,-158.433,-2.18365,-1.61929,9.75108,0.00367642,-0.00328832,-0.000780302
239,-9.14829,12.3529,-158.433,-2.19041,-1.53048,9.80803,0.00261115,0.002038,0.00135023
240,-9.14765,12.3521,-158.433,-2.20125,-1.54628,9.77904,0.00474168,-0.00541885,-0.000780302
241,-9.14776,12.353,-158.433,-2.22325,-1.58729,9.78082,-0.00378043,-0.00435359,0.00135023
242,-9.14756,12.352,-158.432,-2.14679,-1.52612,9.74408,-0.00697623,0.002038,-0.00291083
243,-9.14717,12.3524,-158.433,-2.22489,-1.58341,9.74643,-0.00058464,-0.0011578,0.00348076
244,-9.1471,12.3524,-158.433,-2.19778,-1.56634,9.77522,-0.00058464,-0.00435359,0.00135023
245,-9.14704,12.353,-158.434,-2.17989,-1.61382,9.72388,0.00367642,0.000972733,0.00241549
246,-9.14666,12.3522,-158.434,-2.15449,-1.55708,9.80738,0.00154589,-0.0011578,-0.00184557
247,-9.14716,12.3527,-158.434,-2.18507,-1.57023,9.74784,-0.00378043,-0.00648412,0.00348076
248,-9.14681,12.3528,-158.434,-2.13451,-1.55935,9.77086,-0.0016499,-0.00541885,0.000284962
249,-9.14753,12.3534,-158.435,-2.17967,-1.55789,9.77869,-0.0016499,0.00842958,0.00348076
250,-9.14875,12.3553,-158.435,-2.16911,-1.59272,9.7801,0.00367642,0.00949485,0.000284962
251,-9.14739,12.354,-158.434,-2.14722,-1.54648,9.81462,-0.00271517,0.002038,0.00454602
252,-9.14747,12.3541,-158.434,-2.18149,-1.55964,9.7787,-0.0048457,-0.00435359,0.00135023
253,-9.14684,12.3544,-158.434,-2.17959,-1.5488,9.77513,0.00154589,0.00310326,0.00135023
254,-9.14883,12.3541,-158.434,-2.11691,-1.64672,9.7156,-0.00058464,0.00310326,-0.00504136
255,-9.14992,12.3547,-158.434,-2.19414,-1.54309,9.81342,-0.00058464,-0.00435359,0.00135023
256,-9.15022,12.354,-158.434,-2.18005,-1.60507,9.78195,0.000480625,0.000972733,0.00135023
257,-9.14933,12.3545,-158.433,-2.15306,-1.60791,9.80335,0.000480625,0.00842958,-0.000780302
258,-9.14877,12.3532,-158.433,-2.17057,-1.55809,9.76045,0.000480625,0.00523379,-0.000780302
259,-9.14831,12.3529,-158.432,-2.13332,-1.6213,9.80844,0.000480625,0.002038,0.00135023
260,-9.14826,12.3543,-158.433,-2.17977,-1.57955,9.7604,-0.00058464,0.00416853,-0.00504136
261,-9.14913,12.3537,-158.434,-2.13693,-1.62118,9.80849,-0.00271517,0.00416853,0.000284962
262,-9.1488,12.3548,-158.434,-2.1743,-1.57069,9.76583,-0.00591096,0.002038,0.00241549
263,-9.15011,12.3541,-158.434,-2.0879,-1.61521,9.7481,-0.00058464,-0.00648412,-0.0039761
264,-9.15091,12.3545,-158.435,-2.23391,-1.56158,9.78839,-0.00378043,-0.00648412,0.00561128
265,-9.15163,12.3551,-158.435,-2.20111,-1.54249,9.75007,0.000480625,0.002038,0.00561128
266,-9.15226,12.355,-158.435,-2.14527,-1.56607,9.74013,0.00154589,-0.0011578,0.00454602
267,-9.15311,12.3559,-158.436,-2.19066,-1.57569,9.78231,-0.00378043,0.000972733,0.00348076
268,-9.15367,12.3565,-158.435,-2.19254,-1.60265,9.7495,-0.00697623,-0.00435359,0.00667655
269,-9.15327,12.3562,-158.434,-2.14369,-1.57004,9.78902,-0.00058464,0.000972733,0.00135023
270,-9.15362,12.3562,-158.433,-2.1472,-1.57157,9.76005,0.00154589,-0.00328832,-0.00184557
271,-9.15346,12.3566,-158.432,-2.12222,-1.60154,9.77945,0.00474168,0.0137559,0.00987234
272,-9.15267,12.3573,-158.432,-2.2014,-1.55905,9.79164,-0.00378043,-0.0011578,0.00348076
273,-9.15253,12.3587,-158.431,-2.18164,-1.60471,9.7276,0.00154589,0.00310326,-0.000780302
274,-9.152,12.359,-158.431,-2.22472,-1.55447,9.76115,-0.00804149,-0.00541885,0.00135023
275,-9.15212,12.3582,-158.431,-2.1131,-1.6053,9.74849,-0.00058464,0.00416853,-0.00504136
276,-9.15221,12.358,-158.431,-2.15096,-1.59498,9.75086,0.00154589,-0.0011578,-0.00184557
277,-9.15184,12.3565,-158.43,-2.12366,-1.58121,9.72343,-0.00591096,0.000972733,0.00454602
278,-9.15238,12.3551,-158.43,-2.15816,-1.57856,9.77826,0.000480625,0.00736432,-0.00184557
279,-9.15169,12.3553,-158.43,-2.16531,-1.56027,9.7948,0.000480625,-0.00328832,0.00135023
280,-9.15191,12.3555,-158.43,-2.18489,-1.56101,9.72072,-0.00058464,-0.00541885,0.000284962
281,-9.15098,12.3553,-158.429,-2.14173,-1.54655,9.79643,-0.00378043,0.002038,0.00135023
282,-9.15061,12.3554,-158.429,-2.14343,-1.54813,9.76562,-0.0048457,0.002038,0.00241549
283,-9.14994,12.3558,-158.43,-2.16516,-1.55648,9.76583,0.000480625,0.002038,-0.0039761
284,-9.15084,12.356,-158.43,-2.22322,-1.6016,9.74445,0.000480625,-0.0107452,0.00241549
285,-9.15118,12.3556,-158.432,-2.16707,-1.58527,9.73482,-0.00378043,-0.00648412,0.00454602
286,-9.15208,12.355,-158.432,-2.12017,-1.56896,9.78149,-0.0016499,-0.00328832,0.00880708
287,-9.1524,12.3557,-158.433,-2.19806,-1.59365,9.79314,-0.00271517,0.00523379,0.00667655
288,-9.15201,12.3556,-158.431,-2.17027,-1.52356,9.74983,-0.00058464,-0.0011578,-0.00504136
289,-9.15298,12.3549,-158.431,-2.15847,-1.61668,9.7816,-0.00058464,-0.00328832,0.00135023
290,-9.15289,12.3546,-158.43,-2.14491,-1.51531,9.74595,-0.00591096,-0.0011578,0.00667655
291,-9.15289,12.355,-158.43,-2.17769,-1.56487,9.71879,0.000480625,-0.00328832,-0.00504136
292,-9.15317,12.3548,-158.431,-2.10873,-1.50745,9.74738,-0.0048457,-0.013941,-0.0039761
293,-9.15174,12.356,-158.432,-2.1184,-1.57624,9.77416,-0.0016499,0.00310326,0.00454602
294,-9.152,12.3563,-158.432,-2.17226,-1.55247,9.74057,-0.00271517,-0.00435359,-0.0039761
295,-9.15254,12.3566,-158.432,-2.19813,-1.62424,9.74941,0.00367642,-0.0011578,-0.000780302
296,-9.15338,12.3564,-158.432,-2.18504,-1.56302,9.75515,0.00261115,0.00629906,0.00241549
297,-9.15266,12.3582,-158.432,-2.17213,-1.53614,9.73888,0.000480625,0.00310326,-0.000780302
298,-9.15196,12.3582,-158.432,-2.15252,-1.54075,9.79661,0.00580695,0.000972733,0.00561128
299,-9.15247,12.3592,-158.433,-2.18882,-1.56673,9.79142,-0.0016499,-0.00541885,-0.00291083
300,-9.15236,12.3594,-158.433,-2.18337,-1.57404,9.76955,-0.0016499,0.00842958,0.00561128
301,-9.15146,12.3606,-158.432,-2.20148,-1.5789,9.77336,0.00474168,0.0126906,0.00561128
302,-9.14981,12.3596,-158.432,-2.11065,-1.50935,9.77276,-0.00378043,-0.00328832,0.00241549
303,-9.14996,12.3595,-158.431,-2.11331,-1.62174,9.76831,-0.00271517,-0.00541885,0.00880708
304,-9.14946,12.3592,-158.432,-2.14913,-1.60039,9.73448,0.00474168,0.00310326,0.00561128
305,-9.14994,12.3585,-158.432,-2.13828,-1.56126,9.80896,0.00580695,-0.00648412,0.00241549
306,-9.15152,12.3576,-158.431,-2.15099,-1.58427,9.78175,-0.0016499,0.00310326,-0.00504136
307,-9.15226,12.3571,-158.431,-2.14384,-1.60434,9.75976,-0.00271517,0.000972733,0.00454602
308,-9.15315,12.3564,-158.431,-2.14933,-1.60427,9.77977,0.00367642,0.00310326,0.000284962
309,-9.15386,12.357,-158.431,-2.16847,-1.52902,9.74252,0.00474168,0.00736432,0.00135023
310,-9.15513,12.3576,-158.431,-2.15842,-1.63097,9.74161,0.000480625,-0.00328832,0.000284962
311,-9.15638,12.3575,-158.43,-2.12373,-1.57773,9.74884,0.00367642,-0.00435359,-0.00504136
312,-9.15554,12.3562,-158.429,-2.14736,-1.57,9.80357,0.00261115,-0.00648412,-0.00184557
313,-9.15473,12.3556,-158.428,-2.16199,-1.5949,9.80175,0.00261115,0.00310326,0.00135023
314,-9.15453,12.3562,-158.429,-2.17976,-1.56161,9.79497,0.000480625,0.00416853,-0.00823715
315,-9.15421,12.3565,-158.428,-2.18302,-1.53765,9.74988,0.000480625,-0.00967991,0.00348076
316,-9.15315,12.3578,-158.428,-2.1994,-1.57138,9.71539,0.000480625,-0.0011578,-0.0039761
317,-9.15267,12.3577,-158.429,-2.13624,-1.53407,9.80189,-0.00058464,0.00310326,0.00135023
318,-9.15191,12.3581,-158.429,-2.17188,-1.50528,9.73549,0.00367642,0.002038,-0.00184557
319,-9.15026,12.3585,-158.429,-2.17429,-1.56529,9.77313,0.00154589,0.00310326,-0.00184557
320,-9.15003,12.3579,-158.428,-2.11807,-1.5363,9.76902,0.00154589,0.00416853,0.00241549
321,-9.14935,12.358,-158.428,-2.12587,-1.60506,9.78128,0.000480625,0.00310326,0.00561128
322,-9.15021,12.3573,-158.428,-2.16348,-1.57108,9.76932,0.00261115,0.00523379,-0.0039761
323,-9.15092,12.3567,-158.426,-2.15997,-1.59645,9.74371,-0.00271517,0.000972733,0.00135023
324,-9.15074,12.3584,-158.427,-2.2412,-1.59731,9.73383,-0.00378043,0.002038,0.00348076
325,-9.15168,12.3598,-158.427,-2.1729,-1.61798,9.77633,-0.0016499,-0.0011578,-0.00184557
326,-9.15218,12.3614,-158.427,-2.19089,-1.62086,9.75115,0.00580695,0.00736432,-0.00184557
327,-9.15211,12.3624,-158.429,-2.23235,-1.57814,9.81906,-0.0016499,-0.00435359,-0.0039761
328,-9.15216,12.3616,-158.429,-2.17628,-1.60497,9.74203,-0.00271517,0.00523379,0.00348076
329,-9.15263,12.3611,-158.429,-2.1331,-1.62456,9.74316,0.00580695,0.00629906,-0.000780302
330,-9.15354,12.3618,-158.429,-2.13513,-1.63919,9.77389,-0.00058464,0.0126906,-0.00504136
331,-9.15396,12.3644,-158.429,-2.19024,-1.54101,9.74451,-0.00378043,0.0126906,0.00241549
332,-9.15354,12.364,-158.428,-2.16929,-1.60375,9.8054,0.00261115,-0.00435359,0.00348076
333,-9.15394,12.3641,-158.429,-2.08926,-1.55531,9.75221,0.00154589,-0.00541885,-0.00184557
334,-9.1533,12.3631,-158.429,-2.15619,-1.55687,9.78022,0.00154589,-0.00328832,-0.00291083
335,-9.15428,12.3628,-158.429,-2.11864,-1.62502,9.73935,-0.0016499,-0.00541885,0.000284962
336,-9.15427,12.3611,-158.429,-2.20152,-1.59152,9.75876,-0.0048457,0.00949485,-0.000780302
337,-9.15542,12.3616,-158.429,-2.15279,-1.6129,9.72355,-0.00910675,0.00310326,0.00135023
338,-9.15509,12.3607,-158.429,-2.17825,-1.60873,9.77647,0.00154589,-0.00328832,0.000284962
339,-9.15516,12.3601,-158.429,-2.16363,-1.57129,9.80739,0.00154589,0.002038,0.00135023
340,-9.15519,12.36,-158.43,-2.09875,-1.62206,9.73912,-0.00271517,-0.00328832,0.000284962
341,-9.15475,12.3595,-158.43,-2.11494,-1.58914,9.78852,0.000480625,0.000972733,0.00241549
342,-9.15516,12.3585,-158.429,-2.13491,-1.5976,9.79776,0.00261115,-0.00435359,-0.000780302
343,-9.15594,12.3579,-158.43,-2.15299,-1.61497,9.76886,0.000480625,-0.0118104,-0.00717189
344,-9.15578,12.3582,-158.43,-2.15413,-1.55118,9.72585,-0.00058464,0.000972733,0.000284962
345,-9.15477,12.3571,-158.43,-2.16354,-1.56577,9.79293,0.00367642,-0.0118104,-0.00291083
346,-9.15524,12.3598,-158.43,-2.23187,-1.55413,9.74311,-0.0016499,0.00310326,0.00667655
347,-9.15666,12.3605,-158.431,-2.15811,-1.59105,9.7401,0.000480625,0.00629906,0.00241549
348,-9.15692,12.3623,-158.431,-2.23952,-1.59216,9.77554,0.00261115,-0.00648412,0.00667655
349,-9.15851,12.3615,-158.432,-2.16725,-1.55862,9.83472,0.00261115,-0.00328832,0.00667655
350,-9.15845,12.3624,-158.433,-2.17991,-1.58873,9.77845,-0.00378043,0.00416853,0.00348076
351,-9.15866,12.3624,-158.434,-2.151,-1.56633,9.81814,0.000480625,-0.00435359,-0.000780302
352,-9.15858,12.361,-158.433,-2.15106,-1.58257,9.80352,0.00154589,0.00416853,0.00241549
353,-9.15942,12.36,-158.433,-2.14156,-1.55707,9.73109,0.00154589,0.00310326,0.00241549
354,-9.15915,12.3603,-158.433,-2.12167,-1.56487,9.70903,0.00367642,-0.00435359,-0.00291083
355,-9.1588,12.3598,-158.434,-2.13082,-1.55039,9.76907,0.00687221,0.000972733,0.00135023
356,-9.15683,12.3577,-158.434,-2.19923,-1.51552,9.78288,-0.00058464,0.00523379,-0.000780302
357,-9.15694,12.3568,-158.434,-2.10412,-1.57158,9.82839,0.00580695,0.00310326,-0.00184557
358,-9.15644,12.3568,-158.434,-2.19756,-1.56063,9.72813,0.00474168,-0.00754938,0.00348076
359,-9.15488,12.3571,-158.434,-2.13987,-1.54295,9.78918,-0.00591096,-0.00648412,-0.000780302
360,-9.15398,12.3571,-158.434,-2.14691,-1.53528,9.75851,0.000480625,0.00416853,0.00135023
361,-9.1541,12.3569,-158.434,-2.16893,-1.5799,9.75845,-0.0048457,-0.0118104,0.000284962
362,-9.15405,12.3571,-158.433,-2.18324,-1.56667,9.74966,0.00367642,0.000972733,0.00987234
363,-9.15388,12.3564,-158.432,-2.1473,-1.58964,9.74904,0.00367642,-0.0011578,0.000284962
364,-9.15447,12.3552,-158.432,-2.13304,-1.59399,9.79052,0.00261115,0.00629906,-0.000780302
365,-9.15494,12.3549,-158.432,-2.16919,-1.61078,9.76546,-0.00697623,-0.00541885,-0.00291083
366,-9.15496,12.3559,-158.431,-2.13288,-1.56685,9.80341,-0.00271517,0.000972733,-0.00184557
367,-9.15468,12.3556,-158.431,-2.14581,-1.61707,9.776,0.00367642,0.000972733,-0.0039761
368,-9.15372,12.3553,-158.431,-2.14939,-1.6187,9.76516,-0.00378043,0.002038,0.00241549
369,-9.15467,12.3557,-158.431,-2.15276,-1.5985,9.7436,-0.0016499,-0.00541885,0.00348076
370,-9.15398,12.3555,-158.431,-2.15269,-1.57687,9.76733,-0.00378043,-0.00648412,0.00241549
371,-9.15404,12.3556,-158.431,-2.18534,-1.58857,9.78215,0.00367642,-0.0011578,-0.00291083
372,-9.15356,12.3554,-158.431,-2.17959,-1.57033,9.73327,-0.00271517,-0.00328832,-0.00184557
373,-9.15392,12.3557,-158.433,-2.18139,-1.54336,9.78607,-0.00378043,-0.0011578,-0.00291083
374,-9.15481,12.3566,-158.433,-2.17629,-1.59242,9.76932,-0.00804149,-0.00328832,-0.00184557
375,-9.15461,12.3576,-158.433,-2.19246,-1.56665,9.79872,0.000480625,0.00416853,0.00348076
376,-9.15474,12.3579,-158.432,-2.16021,-1.60038,9.79806,-0.0016499,-0.00754938,-0.00504136
377,-9.15333,12.3585,-158.433,-2.17405,-1.53804,9.76608,0.00154589,-0.00435359,0.00135023
378,-9.15197,12.3575,-158.433,-2.13829,-1.56307,9.80895,0.00261115,-0.00754938,-0.00504136
379,-9.15075,12.355,-158.432,-2.13596,-1.50676,9.78578,0.00580695,0.00523379,0.00454602
380,-9.14918,12.3531,-158.432,-2.10192,-1.55493,9.75962,-0.00378043,-0.00967991,0.000284962
381,-9.14966,12.352,-158.434,-2.12526,-1.54678,9.74003,-0.00378043,-0.0011578,0.00135023
382,-9.15221,12.3527,-158.434,-2.16034,-1.63645,9.75972,-0.0048457,-0.00967991,-0.000780302
383,-9.15299,12.353,-158.434,-2.23783,-1.60675,9.77722,-0.00378043,0.00736432,0.00454602
384,-9.15481,12.3531,-158.434,-2.17749,-1.71794,9.83,-0.0016499,0.00949485,-0.000780302
385,-9.15683,12.3546,-158.435,-2.19477,-1.6642,9.73637,0.00154589,0.00416853,0.00241549
386,-9.15957,12.3559,-158.436,-2.15649,-1.60752,9.75627,0.00261115,0.00416853,-0.000780302
387,-9.16128,12.355,-158.435,-2.16046,-1.63842,9.78689,0.00474168,-0.00541885,-0.00291083
388,-9.1614,12.3539,-158.435,-2.18349,-1.57062,9.80583,0.00154589,-0.0011578,0.00454602
389,-9.16037,12.352,-158.435,-2.11865,-1.5766,9.83941,0.00261115,0.00736432,0.00454602
390,-9.15888,12.3509,-158.435,-2.17574,-1.53243,9.74621,0.00261115,0.00842958,-0.00291083
391,-9.15673,12.3494,-158.436,-2.16172,-1.56402,9.79473,0.00367642,-0.0011578,-0.00291083
392,-9.15732,12.3484,-158.436,-2.22005,-1.64183,9.78036,-0.00271517,0.00523379,-0.000780302
393,-9.15877,12.3495,-158.437,-2.19766,-1.56437,9.74805,0.00154589,-0.00754938,0.00135023
394,-9.15976,12.3514,-158.437,-2.19072,-1.61166,9.72766,0.00687221,0.000972733,0.00241549
395,-9.16186,12.3521,-158.438,-2.17814,-1.60857,9.74747,0.000480625,0.00736432,0.00561128
396,-9.16142,12.3534,-158.439,-2.1549,-1.63301,9.76149,0.00261115,-0.00435359,-0.000780302
397,-9.16207,12.3525,-158.439,-2.11321,-1.58752,9.81207,0.00687221,0.000972733,0.00241549
398,-9.1593,12.354,-158.439,-2.13994,-1.54843,9.79639,-0.0016499,0.000972733,0.00454602
399,-9.15896,12.3532,-158.439,-2.14365,-1.56997,9.77815,0.00580695,-0.00435359,-0.0039761
400,-9.15839,12.3519,-158.438,-2.08297,-1.47889,9.68021,-0.0016499,-0.00328832,-0.000780302
401,-9.15713,12.3516,-158.438,-2.17764,-1.52533,9.78435,-0.00058464,0.0105601,0.00454602
402,-9.15605,12.3516,-158.438,-2.11609,-1.52355,9.74916,0.00261115,0.0105601,0.00454602
403,-9.15499,12.3518,-158.438,-2.15777,-1.50804,9.81867,0.00261115,-0.0011578,0.00348076
404,-9.15524,12.3535,-158.438,-2.19849,-1.64628,9.79818,0.000480625,0.00310326,0.00348076
405,-9.15729,12.354,-158.44,-2.20002,-1.61713,9.78574,0.00793748,-0.0011578,-0.0039761
406,-9.15843,12.353,-158.439,-2.18181,-1.59597,9.78748,-0.00058464,-0.00328832,-0.00291083
407,-9.15818,12.3523,-158.44,-2.14901,-1.51589,9.87107,0.00154589,-0.00328832,0.00454602
408,-9.15746,12.3512,-158.439,-2.10041,-1.57155,9.80116,0.00154589,0.00629906,0.00135023
409,-9.15741,12.3513,-158.439,-2.1978,-1.55918,9.7934,-0.00058464,-0.00435359,0.000284962
410,-9.15668,12.3518,-158.441,-2.19988,-1.59899,9.78587,0.000480625,-0.00541885,0.00135023
411,-9.15711,12.3532,-158.441,-2.16556,-1.56961,9.84186,-0.00378043,-0.00328832,0.00561128
412,-9.15696,12.3531,-158.441,-2.19052,-1.5701,9.75698,0.00154589,0.002038,0.000284962
413,-9.15596,12.3546,-158.441,-2.17076,-1.57271,9.78028,0.000480625,0.00310326,0.00880708
414,-9.15559,12.3545,-158.44,-2.15051,-1.56205,9.70216,0.00154589,-0.00435359,-0.0039761
415,-9.15604,12.3549,-158.44,-2.18717,-1.57778,9.81126,0.00580695,0.00416853,-0.00184557
416,-9.15678,12.3561,-158.44,-2.1833,-1.57215,9.75506,-0.0016499,0.00310326,-0.00717189
417,-9.15846,12.3566,-158.441,-2.11996,-1.5561,9.75258,0.00580695,-0.00648412,-0.0039761
418,-9.15878,12.3556,-158.44,-2.12932,-1.55806,9.83244,-0.00058464,0.00523379,0.00135023
419,-9.15904,12.3562,-158.441,-2.12735,-1.54354,9.81984,0.00687221,0.00736432,0.00135023
420,-9.15914,12.3572,-158.441,-2.13254,-1.56097,9.72551,0.00474168,-0.0011578,0.000284962
421,-9.15835,12.3578,-158.441,-2.10567,-1.57473,9.75407,-0.00378043,0.00310326,0.00241549
422,-9.157,12.357,-158.441,-2.14719,-1.57156,9.75824,-0.00378043,-0.00328832,-0.00291083
423,-9.15447,12.3552,-158.44,-2.13959,-1.51205,9.77854,-0.00378043,-0.00754938,-0.00504136
424,-9.15387,12.3527,-158.439,-2.0802,-1.53045,9.79397,-0.00271517,0.000972733,0.00241549
425,-9.15514,12.3519,-158.44,-2.14518,-1.55159,9.74568,-0.0048457,0.000972733,0.000284962
426,-9.15796,12.351,-158.441,-2.12359,-1.56857,9.73259,0.00261115,-0.00435359,0.00348076
427,-9.15829,12.3515,-158.441,-2.22316,-1.57282,9.78818,0.00367642,0.002038,0.000284962
428,-9.15873,12.3515,-158.441,-2.18546,-1.60309,9.78385,-0.00058464,0.000972733,-0.0039761
429,-9.15937,12.3515,-158.44,-2.11291,-1.56914,9.77052,-0.00271517,0.00842958,0.00667655
430,-9.15783,12.3497,-158.439,-2.14892,-1.54985,9.78018,0.00154589,0.002038,0.00348076
431,-9.15854,12.349,-158.439,-2.15294,-1.60415,9.77981,-0.00591096,-0.0128757,0.00135023
432,-9.15844,12.3464,-158.439,-2.13093,-1.56849,9.76169,-0.0016499,0.00310326,-0.000780302
433,-9.15795,12.3462,-158.439,-2.16317,-1.55448,9.72232,-0.0048457,0.00629906,0.00667655
434,-9.15736,12.3468,-158.439,-2.17418,-1.56693,9.7423,-0.00271517,-0.0011578,-0.0039761
435,-9.15581,12.3457,-158.44,-2.185,-1.51452,9.84071,0.00367642,-0.00328832,0.000284962
436,-9.15775,12.3472,-158.44,-2.18725,-1.59583,9.7948,-0.0048457,0.00416853,-0.00184557
437,-9.16049,12.3491,-158.441,-2.15336,-1.65318,9.78851,-0.0016499,0.0148212,-0.00184557
438,-9.1625,12.3527,-158.441,-2.23405,-1.6138,9.71912,-0.00058464,0.00629906,0.00774181
439,-9.16447,12.3547,-158.441,-2.18711,-1.61537,9.72034,0.000480625,0.00416853,-0.00504136
440,-9.16432,12.3557,-158.442,-2.19611,-1.56659,9.80964,0.00261115,0.00949485,-0.0039761
441,-9.16331,12.3548,-158.441,-2.16698,-1.55285,9.77494,0.00261115,-0.013941,0.00135023
442,-9.16063,12.3535,-158.441,-2.10926,-1.56204,9.77597,0.00261115,-0.0011578,-0.00184557
443,-9.15867,12.3525,-158.441,-2.1632,-1.50787,9.82055,0.00367642,0.00523379,0.00561128
444,-9.15624,12.3508,-158.441,-2.11781,-1.49466,9.78384,-0.00058464,0.00523379,0.00241549
445,-9.15558,12.3504,-158.44,-2.1506,-1.54603,9.75666,-0.0016499,-0.00648412,-0.00291083
446,-9.15566,12.3506,-158.44,-2.15615,-1.5586,9.7657,-0.00058464,0.000972733,0.00241549
447,-9.15462,12.3509,-158.44,-2.1673,-1.59278,9.78008,-0.0016499,0.000972733,0.00348076
448,-9.15595,12.3509,-158.44,-2.13992,-1.55738,9.77457,-0.00058464,-0.00435359,-0.00291083
449,-9.15746,12.3514,-158.44,-2.16008,-1.58585,9.79454,0.000480625,0.00736432,-0.000780302
450,-9.1599,12.3546,-158.44,-2.1546,-1.58953,9.77088,0.00580695,0.00416853,0.00774181
451,-9.16161,12.3536,-158.44,-2.12954,-1.61937,9.76672,-0.00058464,0.000972733,-0.00184557
452,-9.16396,12.3523,-158.441,-2.15857,-1.60426,9.83245,-0.0048457,-0.00541885,-0.00504136
453,-9.16452,12.3512,-158.441,-2.12213,-1.58346,9.79046,-0.0016499,0.00736432,0.00241549
454,-9.16548,12.3509,-158.441,-2.15996,-1.58926,9.75645,-0.00378043,-0.0011578,0.000284962
455,-9.16835,12.3508,-158.441,-2.17653,-1.62686,9.76362,0.000480625,0.00310326,-0.000780302
456,-9.16912,12.3503,-158.442,-2.10952,-1.58751,9.79028,-0.0048457,-0.00328832,0.00667655
457,-9.16845,12.3481,-158.441,-2.0986,-1.56982,9.80478,0.00474168,0.00310326,0.00454602
458,-9.16865,12.3484,-158.441,-2.19588,-1.57881,9.72435,-0.00591096,-0.00435359,0.00135023
459,-9.16841,12.3487,-158.441,-2.17052,-1.56518,9.73139,-0.0016499,0.000972733,-0.000780302
460,-9.1632,12.3483,-158.44,-2.12512,-1.51788,9.762,0.00261115,-0.00541885,-0.000780302
461,-9.16138,12.3472,-158.44,-2.16887,-1.57803,9.74758,0.00261115,0.00310326,-0.00291083
462,-9.1603,12.3469,-158.44,-2.22242,-1.51434,9.71248,-0.0016499,-0.0118104,-0.00291083
463,-9.1582,12.3461,-158.44,-2.11633,-1.54721,9.76348,0.00154589,-0.0011578,0.00667655
464,-9.15594,12.3448,-158.44,-2.17974,-1.57413,9.76406,0.00261115,-0.00328832,0.00348076
465,-9.15578,12.3451,-158.44,-2.14678,-1.5297,9.73499,-0.00378043,0.00842958,-0.00184557
466,-9.15565,12.3462,-158.44,-2.19421,-1.61674,9.68416,-0.0016499,-0.00541885,0.00135023
467,-9.15632,12.347,-158.441,-2.18167,-1.57963,9.78398,-0.0016499,-0.00328832,-0.0039761
468,-9.15678,12.3484,-158.441,-2.22521,-1.59822,9.79888,-0.00271517,0.002038,0.000284962
469,-9.15776,12.3511,-158.442,-2.18314,-1.5773,9.70426,0.00261115,0.00310326,0.00561128
470,-9.15921,12.3524,-158.443,-2.19066,-1.59543,9.7441,-0.00271517,0.002038,-0.000780302
471,-9.15957,12.353,-158.443,-2.17472,-1.60538,9.80545,0.00261115,-0.00754938,0.000284962
472,-9.16,12.3534,-158.442,-2.14735,-1.58614,9.77082,-0.0016499,-0.00648412,-0.00291083
473,-9.16048,12.3526,-158.441,-2.13797,-1.53929,9.77287,-0.00271517,-0.00435359,0.00135023
474,-9.16141,12.3511,-158.44,-2.15477,-1.62385,9.74524,-0.00058464,0.00416853,0.000284962
475,-9.1611,12.3506,-158.44,-2.15425,-1.55853,9.74211,-0.00058464,-0.00541885,-0.0039761
476,-9.16273,12.3508,-158.44,-2.16518,-1.5601,9.76399,0.00154589,-0.0011578,0.00774181
477,-9.16177,12.3502,-158.441,-2.14047,-1.62095,9.78859,0.00793748,-0.00328832,0.00561128
478,-9.1619,12.3504,-158.442,-2.18301,-1.53405,9.75535,-0.00058464,-0.0011578,-0.000780302
479,-9.16191,12.3506,-158.443,-2.16678,-1.55256,9.72419,-0.00271517,0.00310326,0.00561128
480,-9.1606,12.3516,-158.443,-2.18503,-1.55583,9.76789,0.00367642,0.002038,-0.0039761
481,-9.15938,12.3517,-158.442,-2.15211,-1.49172,9.78791,0.00367642,0.002038,0.00241549
482,-9.15746,12.3523,-158.442,-2.16697,-1.53848,9.80043,-0.00271517,-0.00541885,-0.00504136
483,-9.15704,12.3511,-158.442,-2.1795,-1.53791,9.77521,-0.00271517,0.00842958,0.00561128
484,-9.15573,12.3512,-158.442,-2.1613,-1.52933,9.75511,0.000480625,0.002038,-0.00291083
485,-9.15396,12.3509,-158.443,-2.1718,-1.50158,9.72283,-0.0016499,0.00310326,0.00135023
486,-9.15208,12.3516,-158.443,-2.19205,-1.52121,9.78275,-0.00591096,-0.00328832,-0.00184557
487,-9.15322,12.3519,-158.444,-2.1708,-1.59788,9.7402,-0.00697623,-0.0011578,-0.00504136
488,-9.15395,12.3516,-158.443,-2.14751,-1.61866,9.74701,-0.00058464,0.002038,0.00561128
489,-9.15538,12.3515,-158.444,-2.16033,-1.60235,9.82523,0.00261115,-0.00328832,-0.0039761
490,-9.15664,12.3513,-158.442,-2.18017,-1.64113,9.7418,0.00154589,0.0116254,-0.00184557
491,-9.15901,12.3525,-158.444,-2.22547,-1.656,9.75132,0.00154589,0.00523379,0.000284962
492,-9.16105,12.353,-158.443,-2.18016,-1.64291,9.73635,0.00261115,-0.0011578,-0.0039761
493,-9.16181,12.3563,-158.443,-2.23726,-1.54672,9.74867,0.00367642,-0.00328832,-0.00291083
494,-9.15994,12.3567,-158.443,-2.16506,-1.51328,9.82597,0.00687221,0.000972733,0.00667655
495,-9.1595,12.3569,-158.443,-2.18105,-1.49622,9.79186,0.00474168,-0.00328832,0.00241549
496,-9.15807,12.3563,-158.443,-2.15077,-1.57497,9.74194,0.00154589,-0.00648412,-0.0039761
497,-9.15816,12.3554,-158.443,-2.12183,-1.55972,9.76164,-0.0048457,-0.0011578,-0.000780302
498,-9.15694,12.3532,-158.444,-2.10047,-1.5555,9.85023,-0.00378043,0.00523379,0.00561128
499,-9.15575,12.3526,-158.444,-2.16361,-1.54973,9.8438,-0.00271517,-0.0011578,0.000284962
500,-9.15372,12.3532,-158.446,-2.13788,-1.5266,9.77478,0.000480625,0.000972733,0.00135023
501,-9.15397,12.3522,-158.446,-2.12932,-1.58498,9.77967,0.000480625,-0.00754938,0.000284962
502,-9.15315,12.3519,-158.446,-2.17556,-1.52859,9.70817,-0.00591096,-0.00328832,-0.0039761
503,-9.1539,12.3528,-158.446,-2.19992,-1.60443,9.78583,0.000480625,-0.0011578,-0.000780302
504,-9.15447,12.3528,-158.446,-2.156,-1.54044,9.76221,0.00261115,-0.00328832,0.00135023
505,-9.15615,12.3527,-158.446,-2.18166,-1.58679,9.76761,0.000480625,0.00416853,-0.0039761
506,-9.15676,12.3544,-158.446,-2.18339,-1.57765,9.76589,-0.00271517,-0.00328832,-0.0039761
507,-9.15614,12.3541,-158.446,-2.11784,-1.53777,9.70738,-0.00271517,0.00310326,-0.00291083
508,-9.1559,12.3533,-158.446,-2.14713,-1.54994,9.78559,-0.00591096,-0.00541885,-0.000780302
509,-9.15508,12.3528,-158.446,-2.15827,-1.60025,9.7636,-0.00378043,0.00629906,0.00135023
510,-9.15552,12.3531,-158.447,-2.1361,-1.54464,9.74562,0.00154589,-0.0011578,-0.000780302
511,-9.15619,12.3544,-158.448,-2.19984,-1.58099,9.81139,0.00367642,-0.0011578,0.00561128
512,-9.15664,12.3554,-158.448,-2.14161,-1.56074,9.73831,0.00154589,-0.0011578,0.000284962
513,-9.15547,12.3562,-158.448,-2.12671,-1.53364,9.67308,-0.00804149,-0.00541885,-0.0039761
514,-9.15565,12.3566,-158.448,-2.15642,-1.57154,9.80911,-0.00378043,0.00523379,0.000284962
515,-9.15343,12.3546,-158.448,-2.18623,-1.49031,9.74122,0.00261115,-0.0118104,-0.000780302
516,-9.15254,12.3551,-158.447,-2.1437,-1.58082,9.77081,-0.0016499,0.00310326,0.00348076
517,-9.15226,12.3541,-158.448,-2.1964,-1.59032,9.83665,0.000480625,0.000972733,-0.0039761
518,-9.15115,12.3519,-158.448,-2.18324,-1.57564,9.73147,-0.00378043,-0.0160715,-0.00823715
519,-9.15082,12.3493,-158.448,-2.14333,-1.52466,9.78574,0.00154589,-0.00648412,0.00241549
520,-9.14968,12.3493,-158.448,-2.15097,-1.59141,9.76176,0.00367642,-0.00328832,-0.00291083
521,-9.15107,12.3496,-158.448,-2.17624,-1.60311,9.73479,0.00154589,0.002038,0.00348076
522,-9.15232,12.3513,-158.449,-2.19806,-1.59005,9.79861,0.00154589,-0.00328832,-0.00717189
523,-9.15371,12.3514,-158.45,-2.1655,-1.61259,9.74184,0.000480625,-0.00754938,-0.00717189
524,-9.15475,12.3516,-158.45,-2.19798,-1.59532,9.76775,0.00580695,0.00416853,0.00241549
525,-9.15497,12.3515,-158.45,-2.14544,-1.57348,9.76727,-0.00058464,-0.00648412,-0.00291083
526,-9.15478,12.3517,-158.449,-2.19122,-1.63211,9.81633,0.00261115,-0.00967991,-0.00504136
527,-9.15383,12.351,-158.449,-2.16332,-1.56007,9.74765,0.00367642,0.00310326,0.00348076
528,-9.15352,12.3493,-158.449,-2.12183,-1.55792,9.76347,0.000480625,0.000972733,0.000284962
529,-9.15299,12.3492,-158.449,-2.17924,-1.51781,9.74817,-0.00058464,-0.00435359,0.00667655
530,-9.15143,12.3488,-158.449,-2.17231,-1.55434,9.74962,0.00367642,0.00310326,0.00241549
531,-9.15095,12.3479,-158.448,-2.10556,-1.55125,9.77238,-0.00271517,-0.00754938,-0.00184557
532,-9.14977,12.3492,-158.449,-2.19951,-1.58052,9.72801,-0.00271517,0.002038,-0.000780302
533,-9.14928,12.3514,-158.45,-2.19775,-1.56988,9.76069,-0.00058464,-0.00435359,-0.00184557
534,-9.14909,12.3511,-158.45,-2.18182,-1.57625,9.82933,0.00154589,-0.00435359,-0.00504136
535,-9.14973,12.3518,-158.45,-2.14349,-1.56078,9.75646,0.000480625,-0.00754938,-0.000780302
536,-9.1486,12.3527,-158.45,-2.16844,-1.52,9.75165,-0.0016499,0.000972733,0.00987234
537,-9.14696,12.3539,-158.45,-2.23001,-1.53078,9.77408,0.00474168,-0.00754938,-0.0039761
538,-9.14535,12.3549,-158.45,-2.15616,-1.56759,9.75113,-0.00378043,0.002038,0.00348076
539,-9.14481,12.3563,-158.45,-2.16509,-1.55637,9.74589,-0.00378043,0.00736432,0.000284962
540,-9.14381,12.3561,-158.45,-2.12705,-1.53593,9.75645,0.00261115,0.00310326,-0.000780302
541,-9.14324,12.3564,-158.45,-2.18661,-1.53392,9.75358,-0.00591096,0.00310326,-0.0039761
542,-9.14301,12.3564,-158.45,-2.11137,-1.60367,9.77024,-0.00378043,0.00310326,-0.000780302
543,-9.14221,12.3551,-158.45,-2.14347,-1.54999,9.77286,-0.0016499,0.00416853,-0.00504136
544,-9.14196,12.3547,-158.449,-2.13817,-1.56468,9.77268,-0.00058464,0.00629906,0.00774181
545,-9.14172,12.354,-158.448,-2.08085,-1.60853,9.80789,-0.0016499,0.000972733,0.00774181
546,-9.14267,12.3538,-158.448,-2.19051,-1.55215,9.78974,-0.0016499,-0.00541885,-0.0039761
547,-9.14332,12.3531,-158.449,-2.17839,-1.63404,9.76177,-0.00591096,0.00629906,0.00667655
548,-9.14402,12.3522,-158.448,-2.187,-1.58292,9.75683,-0.00378043,0.00310326,-0.00717189
549,-9.14575,12.3512,-158.448,-2.07317,-1.58659,9.73364,-0.00271517,0.00523379,0.000284962
550,-9.14649,12.3498,-158.447,-2.12257,-1.63074,9.81005,0.00367642,-0.00541885,0.00348076
551,-9.14647,12.3486,-158.447,-2.19062,-1.58102,9.76233,-0.00271517,0.00310326,-0.0039761
552,-9.1469,12.3501,-158.447,-2.15854,-1.61857,9.79609,0.000480625,-0.00328832,-0.00504136
553,-9.14543,12.3506,-158.447,-2.15619,-1.56404,9.76566,0.00154589,-0.00328832,0.00561128
554,-9.14541,12.3499,-158.448,-2.10238,-1.59864,9.7901,0.00367642,0.00416853,0.00348076
555,-9.14633,12.3509,-158.448,-2.17628,-1.59062,9.77114,0.00580695,0.00629906,0.00348076
556,-9.14651,12.3513,-158.451,-2.19447,-1.60994,9.76578,0.00154589,-0.00754938,0.000284962
557,-9.14532,12.3521,-158.45,-2.17772,-1.55235,9.75152,-0.0016499,0.000972733,0.00454602
558,-9.14409,12.3523,-158.45,-2.18882,-1.58287,9.75867,0.00474168,0.002038,0.000284962
559,-9.14363,12.3531,-158.451,-2.156,-1.54942,9.74583,-0.00058464,-0.00328832,0.00135023
560,-9.14303,12.3537,-158.451,-2.15595,-1.55113,9.72769,0.00154589,0.00310326,-0.000780302
561,-9.14266,12.3546,-158.451,-2.20272,-1.53138,9.72117,-0.0016499,-0.00328832,-0.000780302
562,-9.1414,12.3539,-158.451,-2.13462,-1.56489,9.78895,0.00261115,0.000972733,0.00454602
563,-9.14125,12.354,-158.451,-2.15426,-1.56033,9.74029,0.000480625,0.00842958,0.00135023
564,-9.14161,12.3532,-158.45,-2.1307,-1.57713,9.68549,0.000480625,-0.00328832,-0.00184557
565,-9.14298,12.3533,-158.451,-2.17671,-1.63788,9.7871,-0.00591096,-0.00541885,-0.000780302
566,-9.14307,12.3563,-158.451,-2.24103,-1.57194,9.73946,-0.0048457,-0.00967991,-0.000780302
567,-9.14347,12.3573,-158.452,-2.14912,-1.59141,9.75086,-0.00058464,-0.00541885,-0.00184557
568,-9.14313,12.3582,-158.452,-2.14013,-1.58459,9.77437,-0.00591096,-0.00541885,-0.00184557
569,-9.14393,12.358,-158.452,-2.16711,-1.57456,9.76571,-0.00271517,0.000972733,0.00454602
570,-9.14476,12.359,-158.452,-2.18764,-1.66637,9.7562,-0.00058464,-0.0011578,-0.00504136
571,-9.14571,12.3597,-158.452,-2.14928,-1.60598,9.76163,-0.0016499,0.000972733,0.00241549
572,-9.14765,12.3603,-158.453,-2.14038,-1.61185,9.78322,-0.0016499,0.00629906,-0.00823715
573,-9.14922,12.3605,-158.453,-2.20197,-1.63522,9.78743,0.00474168,-0.00754938,0.000284962
574,-9.14884,12.3619,-158.453,-2.12559,-1.60825,9.70331,-0.00058464,0.0137559,-0.00291083
575,-9.14897,12.3623,-158.453,-2.19211,-1.54103,9.75903,-0.0016499,0.00523379,0.00454602
576,-9.1502,12.3623,-158.453,-2.16917,-1.60717,9.7673,0.00154589,0.00629906,0.00880708
577,-9.15022,12.3603,-158.452,-2.07443,-1.52475,9.716,0.00261115,0.00310326,0.00774181
578,-9.14685,12.3552,-158.451,-2.12424,-1.62331,9.79018,-0.00271517,-0.00328832,-0.000780302
579,-9.14742,12.354,-158.453,-2.22336,-1.58387,9.8171,-0.0048457,0.00310326,-0.0103677
580,-9.15329,12.3538,-158.454,-2.22166,-1.61099,9.78968,0.00261115,-0.00328832,-0.00504136
581,-9.15618,12.3561,-158.457,-2.23225,-1.63898,9.66996,-0.00058464,-0.0107452,-0.00823715
582,-9.16114,12.3591,-158.459,-2.159,-1.67844,9.79563,0.00261115,0.0116254,-0.00504136
583,-9.16162,12.3621,-158.459,-2.23452,-1.64676,9.77506,0.00687221,0.0105601,-0.00184557
584,-9.16156,12.3625,-158.459,-2.14363,-1.54664,9.82183,0.00367642,-0.0011578,-0.0039761
585,-9.15415,12.3612,-158.457,-2.05961,-1.49598,9.67616,0.00793748,0.000972733,0.00774181
586,-9.15032,12.3593,-158.456,-2.10513,-1.51655,9.73095,0.00154589,-0.0011578,-0.00184557
587,-9.14448,12.3591,-158.456,-2.08882,-1.4901,9.76901,-0.00591096,0.0105601,0.00348076
588,-9.13797,12.3581,-158.455,-2.19255,-1.37935,9.72946,0.000480625,-0.00541885,-0.0039761
589,-9.13073,12.3541,-158.456,-2.19465,-1.47838,9.60728,-0.00591096,0.00736432,-0.00184557
590,-9.12958,12.3554,-158.455,-2.11971,-1.48757,9.82379,-0.00910675,0.00523379,-0.00717189
591,-9.12711,12.354,-158.455,-2.19408,-1.5771,9.73159,-0.0016499,0.00949485,-0.00504136
592,-9.1318,12.3561,-158.455,-2.15106,-1.59691,9.7726,-0.00271517,0.00736432,0.000284962
593,-9.1342,12.3577,-158.456,-2.18942,-1.65908,9.76172,-0.00058464,0.002038,-0.00930242
594,-9.13692,12.3587,-158.456,-2.19231,-1.59514,9.70424,-0.010172,-0.0011578,-0.00823715
595,-9.13935,12.359,-158.457,-2.19834,-1.6066,9.83836,-0.00058464,0.00949485,0.00454602
596,-9.13985,12.3591,-158.457,-2.15077,-1.59471,9.70373,0.00367642,0.00310326,0.00561128
597,-9.14028,12.3574,-158.456,-2.12563,-1.56884,9.79243,0.000480625,0.00416853,0.00454602
598,-9.14121,12.3567,-158.456,-2.18192,-1.57461,9.86015,-0.00058464,0.002038,-0.000780302
599,-9.14303,12.3555,-158.456,-2.13652,-1.57933,9.78524,-0.00378043,0.00736432,-0.00291083
600,-9.14576,12.3556,-158.459,-2.2213,-1.56383,9.79185,0.00367642,0.000972733,-0.00717189
601,-9.14754,12.3567,-158.458,-2.18202,-1.63575,9.76362,-0.00697623,0.00416853,-0.000780302
602,-9.15161,12.3592,-158.46,-2.26455,-1.56765,9.75973,0.00793748,-0.00541885,-0.00291083
603,-9.15185,12.361,-158.46,-2.26115,-1.58601,9.77767,0.00261115,-0.0011578,0.00348076
604,-9.15124,12.3639,-158.461,-2.2904,-1.62324,9.79588,0.00261115,-0.0118104,0.00454602
605,-9.14809,12.3642,-158.461,-2.16814,-1.50881,9.69735,0.00474168,-0.00541885,-0.00291083
606,-9.14461,12.3638,-158.461,-2.11972,-1.48937,9.82197,-0.00058464,-0.00328832,0.00241549
607,-9.14048,12.3628,-158.46,-2.15879,-1.4333,9.76488,0.00261115,0.00416853,0.000284962
608,-9.13446,12.3609,-158.461,-2.11964,-1.49643,9.78747,0.000480625,0.000972733,-0.00184557
609,-9.12996,12.3578,-158.46,-2.13027,-1.47425,9.77871,0.00154589,0.00736432,0.00135023
610,-9.12946,12.3571,-158.459,-2.11987,-1.55418,9.73266,0.000480625,-0.00328832,0.00241549
611,-9.1311,12.354,-158.46,-2.15644,-1.58054,9.79635,0.000480625,0.00736432,0.00241549
612,-9.13281,12.3541,-158.46,-2.1333,-1.65895,9.7284,-0.0048457,0.00949485,-0.00184557
613,-9.13542,12.3543,-158.46,-2.1709,-1.61417,9.73283,-0.00058464,0.00949485,0.00561128
614,-9.14067,12.3544,-158.46,-2.14788,-1.65506,9.76849,0.00261115,-0.00541885,0.00561128
615,-9.14183,12.3547,-158.459,-2.20177,-1.62416,9.7567,-0.00378043,-0.0011578,-0.00504136
616,-9.14528,12.3567,-158.459,-2.2867,-1.62683,9.7668,-0.00058464,0.000972733,-0.000780302
617,-9.14717,12.3577,-158.459,-2.18241,-1.68654,9.76324,0.00154589,0.002038,-0.00823715
618,-9.14745,12.3578,-158.459,-2.15829,-1.5913,9.78542,-0.00058464,0.00523379,-0.00184557
619,-9.14867,12.3576,-158.459,-2.13099,-1.56319,9.7871,0.00154589,0.00949485,0.00454602
620,-9.14864,12.3581,-158.459,-2.18897,-1.58489,9.79491,0.00367642,-0.00648412,0.00987234
621,-9.15008,12.3595,-158.46,-2.16374,-1.60374,9.77089,0.00367642,-0.00648412,-0.00504136
622,-9.14977,12.3605,-158.46,-2.16929,-1.60195,9.80722,-0.00378043,0.00523379,0.000284962
623,-9.14925,12.3623,-158.46,-2.20311,-1.56782,9.74809,0.00154589,0.00416853,-0.000780302
624,-9.14834,12.3637,-158.46,-2.18693,-1.57744,9.74963,-0.00378043,0.00416853,0.00561128
625,-9.14911,12.3648,-158.461,-2.2016,-1.60957,9.74231,-0.00271517,-0.00648412,0.00241549
626,-9.14806,12.3655,-158.461,-2.17266,-1.60507,9.73836,-0.00271517,-0.00435359,-0.000780302
627,-9.1462,12.3659,-158.461,-2.12359,-1.5291,9.81084,-0.00058464,0.00842958,0.000284962
628,-9.14448,12.3654,-158.46,-2.1527,-1.56971,9.78551,-0.00271517,-0.00754938,-0.00291083
629,-9.14164,12.3655,-158.46,-2.15983,-1.53705,9.82573,-0.00378043,0.000972733,-0.000780302
630,-9.1387,12.3653,-158.459,-2.13059,-1.54467,9.72017,-0.00378043,-0.00328832,-0.00184557
631,-9.13657,12.3657,-158.459,-2.17264,-1.5584,9.82754,-0.0016499,-0.0011578,0.00348076
632,-9.1361,12.3649,-158.459,-2.17085,-1.59256,9.762,-0.00058464,0.00736432,0.00135023
633,-9.1361,12.3645,-158.459,-2.13846,-1.57586,9.82516,-0.00058464,-0.0011578,-0.00504136
634,-9.13899,12.3643,-158.459,-2.18341,-1.58306,9.76041,-0.00271517,0.002038,0.00667655
635,-9.14126,12.3644,-158.459,-2.19058,-1.57378,9.76601,-0.0048457,-0.0011578,-0.00291083
636,-9.14425,12.3634,-158.458,-2.15681,-1.60619,9.84147,-0.00378043,0.00523379,0.00348076
637,-9.14806,12.3621,-158.458,-2.15165,-1.66774,9.78656,0.000480625,-0.00648412,-0.000780302
638,-9.15098,12.3606,-158.458,-2.117,-1.62711,9.77738,-0.00378043,-0.00435359,-0.000780302
639,-9.15477,12.36,-158.458,-2.1804,-1.66658,9.75067,-0.00378043,0.00310326,0.000284962
640,-9.15663,12.3582,-158.458,-2.08428,-1.60994,9.75716,0.00261115,0.000972733,0.00135023
641,-9.15781,12.3562,-158.457,-2.1022,-1.60018,9.74115,0.00474168,0.00736432,-0.00291083
642,-9.15911,12.3567,-158.457,-2.19086,-1.58854,9.80941,0.00154589,-0.00541885,-0.000780302
643,-9.15913,12.3588,-158.457,-2.22321,-1.58545,9.77539,0.00367642,0.0169517,0.00987234
644,-9.15828,12.3603,-158.456,-2.17045,-1.55611,9.73146,0.000480625,0.000972733,-0.00291083
645,-9.15697,12.3612,-158.456,-2.13613,-1.54826,9.74559,0.00261115,0.00949485,0.00774181
646,-9.15536,12.3619,-158.455,-2.16507,-1.53661,9.78048,0.00261115,0.00416853,0.00667655
647,-9.15206,12.3619,-158.455,-2.20278,-1.4938,9.81209,0.00261115,0.00310326,0.00774181
648,-9.15103,12.3628,-158.456,-2.1426,-1.45007,9.74642,-0.00378043,0.00629906,0.00561128
649,-9.14813,12.3631,-158.457,-2.14848,-1.47029,9.8261,0.00154589,0.00310326,0.0120029
650,-9.14665,12.3637,-158.458,-2.14152,-1.55881,9.71839,-0.00271517,0.002038,-0.00504136
651,-9.14639,12.3628,-158.456,-2.1709,-1.61417,9.73283,0.00261115,0.00416853,-0.00717189
652,-9.14586,12.3632,-158.457,-2.18128,-1.53602,9.77162,0.00154589,0.00949485,0.000284962
653,-9.14544,12.3639,-158.458,-2.14747,-1.59707,9.7798,-0.00697623,-0.0011578,-0.00717189
654,-9.14566,12.3642,-158.458,-2.14376,-1.59166,9.76348,-0.00271517,0.000972733,-0.00184557
655,-9.14593,12.3636,-158.458,-2.15629,-1.56956,9.78012,0.00261115,0.00310326,0.00348076
656,-9.1465,12.3643,-158.46,-2.18162,-1.5688,9.79494,-0.0016499,0.00629906,-0.0114329
657,-9.14854,12.3642,-158.459,-2.14768,-1.6189,9.79051,-0.00058464,-0.00435359,-0.00930242
658,-9.14932,12.3638,-158.46,-2.13997,-1.59511,9.71084,-0.00058464,-0.00328832,0.00348076
659,-9.15076,12.3634,-158.461,-2.19112,-1.63196,9.78914,0.00580695,-0.00328832,0.00454602
660,-9.15254,12.3631,-158.462,-2.13822,-1.58629,9.74351,0.00154589,0.00523379,0.00454602
661,-9.15272,12.3625,-158.461,-2.11811,-1.56148,9.73077,0.00154589,-0.0011578,-0.00291083
662,-9.15403,12.3621,-158.461,-2.12592,-1.6177,9.77031,-0.00058464,0.00523379,0.00135023
663,-9.15404,12.3618,-158.462,-2.15255,-1.54976,9.78566,0.00367642,-0.00435359,0.00667655
664,-9.15412,12.3621,-158.462,-2.11649,-1.58512,9.73056,-0.00378043,-0.00328832,0.000284962
665,-9.15417,12.3639,-158.463,-2.19234,-1.56469,9.77335,0.00154589,-0.0011578,-0.00291083
666,-9.15367,12.3631,-158.463,-2.22491,-1.56011,9.79736,0.00367642,0.00310326,0.00454602
667,-9.15163,12.3629,-158.463,-2.1591,-1.48756,9.73547,0.00154589,-0.00754938,0.00348076
668,-9.14831,12.3589,-158.462,-2.16812,-1.4729,9.76288,-0.00591096,-0.00648412,-0.00184557
669,-9.1481,12.3574,-158.462,-2.18515,-1.52909,9.85148,0.00261115,0.00629906,-0.0039761
670,-9.14603,12.3586,-158.462,-2.19253,-1.57392,9.80229,-0.0016499,0.00736432,0.00561128
671,-9.14561,12.3577,-158.461,-2.16874,-1.53838,9.7932,0.000480625,0.002038,0.00348076
672,-9.1457,12.3582,-158.462,-2.14909,-1.59675,9.73269,0.00261115,-0.00328832,0.00135023
673,-9.14602,12.3581,-158.464,-2.16202,-1.60392,9.79261,-0.00591096,-0.0107452,-0.00823715
674,-9.14679,12.3588,-158.465,-2.18001,-1.61937,9.74378,-0.00697623,0.0105601,0.00348076
675,-9.14946,12.3608,-158.465,-2.24535,-1.67152,9.72607,-0.0016499,0.00310326,0.000284962
676,-9.15165,12.3628,-158.465,-2.22856,-1.57082,9.78645,-0.00058464,0.00310326,0.00667655
677,-9.15277,12.3639,-158.465,-2.193,-1.64457,9.78363,-0.00058464,-0.0011578,-0.000780302
678,-9.15416,12.3641,-158.465,-2.19231,-1.58078,9.73154,0.00154589,-0.0107452,0.00135023
679,-9.15411,12.3654,-158.465,-2.1925,-1.59183,9.76046,-0.00271517,0.00416853,-0.000780302
680,-9.15359,12.3655,-158.466,-2.19775,-1.57168,9.75705,0.00261115,0.00736432,0.00348076
681,-9.15396,12.3669,-158.466,-2.1436,-1.604,9.69994,-0.00058464,-0.00328832,0.00454602
682,-9.15381,12.3652,-158.465,-2.10356,-1.54386,9.73797,-0.00058464,0.002038,-0.00291083
683,-9.15557,12.3641,-158.465,-2.06116,-1.65967,9.75106,0.000480625,-0.00754938,-0.00184557
684,-9.15608,12.3642,-158.465,-2.15581,-1.53119,9.73147,-0.0048457,0.00736432,0.00348076
685,-9.15494,12.3633,-158.464,-2.1978,-1.56099,9.79158,-0.00058464,0.00416853,0.00241549
686,-9.15577,12.3624,-158.464,-2.15137,-1.64581,9.75772,-0.00058464,-0.00328832,-0.00504136
687,-9.15615,12.3613,-158.464,-2.11823,-1.57062,9.74339,-0.0016499,-0.0011578,-0.00184557
688,-9.15666,12.3615,-158.464,-2.18698,-1.57391,9.76778,-0.0016499,-0.0011578,-0.00291083
689,-9.15503,12.3587,-158.464,-2.18902,-1.5742,9.82943,0.000480625,-0.00328832,-0.00717189
690,-9.15436,12.357,-158.463,-2.10405,-1.58762,9.77752,-0.00058464,0.00523379,0.00667655
691,-9.15322,12.3551,-158.463,-2.13572,-1.51001,9.71688,-0.00378043,0.000972733,-0.00184557
692,-9.1521,12.3529,-158.463,-2.14525,-1.57501,9.7165,-0.0016499,-0.0011578,-0.00291083
693,-9.15147,12.3536,-158.463,-2.23724,-1.54669,9.74324,0.00687221,-0.00328832,0.00348076
694,-9.15154,12.3552,-158.462,-2.14198,-1.59895,9.75797,-0.00378043,-0.0011578,0.00241549
695,-9.15281,12.356,-158.463,-2.19817,-1.60277,9.80214,-0.0016499,0.002038,0.00135023
696,-9.15306,12.3574,-158.463,-2.18486,-1.55559,9.72439,-0.0016499,0.00629906,-0.0039761
697,-9.15419,12.3586,-158.462,-2.17989,-1.59049,9.76938,0.000480625,-0.00541885,0.000284962
698,-9.15607,12.3591,-158.461,-2.19393,-1.53561,9.7736,0.000480625,0.0105601,-0.00184557
699,-9.15693,12.3608,-158.46,-2.18539,-1.58684,9.79847,-0.00058464,0.00310326,0.00241549
700,-9.15804,12.3604,-158.46,-2.20013,-1.63523,9.77835,-0.00378043,-0.013941,-0.000780302
701,-9.15849,12.3614,-158.46,-2.2015,-1.5879,9.7606,0.00474168,0.00523379,0.00454602
702,-9.15963,12.3601,-158.46,-2.11303,-1.57649,9.78678,-0.00271517,-0.00541885,-0.0039761
703,-9.1588,12.3605,-158.461,-2.18904,-1.59216,9.79848,-0.00058464,0.00629906,-0.000780302
704,-9.15874,12.3594,-158.46,-2.11857,-1.58366,9.80311,-0.00058464,0.002038,0.000284962
705,-9.15639,12.3591,-158.46,-2.19731,-1.51901,9.74658,-0.0016499,-0.00328832,0.00241549
706,-9.1563,12.3594,-158.461,-2.17243,-1.60115,9.68763,-0.0048457,-0.0011578,0.000284962
707,-9.15537,12.3579,-158.461,-2.18297,-1.54118,9.73173,-0.00058464,-0.00648412,-0.00291083
708,-9.15434,12.3581,-158.46,-2.17941,-1.53239,9.76075,0.00474168,0.00416853,0.00135023
709,-9.15279,12.3579,-158.46,-2.13585,-1.49584,9.77862,0.000480625,-0.0011578,-0.0039761
710,-9.15132,12.3576,-158.461,-2.18169,-1.59042,9.76759,-0.00058464,0.00629906,0.00561128
711,-9.15162,12.3591,-158.461,-2.15077,-1.58394,9.72375,-0.0016499,0.000972733,0.00348076
712,-9.15104,12.3586,-158.461,-2.17801,-1.57968,9.77306,-0.00697623,-0.0107452,-0.00184557
713,-9.15151,12.3587,-158.461,-2.16185,-1.5929,9.76913,-0.0016499,0.00310326,0.00348076
714,-9.15239,12.3581,-158.461,-2.14713,-1.58044,9.72554,0.00154589,-0.00328832,-0.00504136
715,-9.15213,12.3564,-158.462,-2.12023,-1.56904,9.79599,-0.00378043,0.00416853,-0.00291083
716,-9.15217,12.3562,-158.462,-2.1618,-1.59642,9.74917,-0.00058464,0.00416853,-0.00291083
717,-9.15378,12.3556,-158.463,-2.13681,-1.62997,9.75766,-0.00378043,-0.00435359,0.00348076
718,-9.15356,12.3555,-158.463,-2.20164,-1.57195,9.82779,-0.0016499,0.00416853,0.00135023
719,-9.15528,12.3549,-158.463,-2.14374,-1.59523,9.75258,-0.00591096,0.002038,0.00348076
720,-9.15629,12.3549,-158.463,-2.19769,-1.55185,9.78077,-0.00058464,-0.00435359,0.000284962
721,-9.15817,12.3565,-158.462,-2.18919,-1.6139,9.79288,-0.0048457,-0.00435359,0.00561128
722,-9.15945,12.3568,-158.462,-2.17802,-1.60302,9.72938,0.00261115,0.00629906,0.00667655
723,-9.16076,12.3571,-158.462,-2.18118,-1.54664,9.72441,0.00261115,0.000972733,-0.00291083
724,-9.15988,12.3578,-158.463,-2.17069,-1.56543,9.7767,0.00367642,0.00629906,-0.00184557
725,-9.15905,12.3593,-158.463,-2.22665,-1.58687,9.72648,-0.00591096,-0.00967991,-0.00291083
726,-9.15641,12.3602,-158.463,-2.18525,-1.601,9.73492,0.000480625,0.00416853,-0.00504136
727,-9.15629,12.3602,-158.463,-2.16683,-1.52214,9.79874,-0.00271517,-0.00435359,-0.00184557
728,-9.15654,12.3596,-158.463,-2.15815,-1.57676,9.78009,0.000480625,-0.00328832,-0.00291083
729,-9.15577,12.3593,-158.463,-2.13988,-1.55193,9.77461,0.00261115,-0.0011578,-0.00184557
730,-9.15548,12.3601,-158.465,-2.19399,-1.56441,9.7335,-0.00271517,0.00310326,0.00348076
731,-9.15553,12.3591,-158.464,-2.15232,-1.55123,9.72402,0.00154589,0.00629906,0.00561128
732,-9.15558,12.3588,-158.464,-2.16015,-1.59491,9.79266,0.00261115,-0.00541885,0.000284962
733,-9.15601,12.3573,-158.465,-2.13641,-1.57916,9.75623,-0.00591096,-0.0011578,-0.0039761
734,-9.15626,12.3579,-158.465,-2.1181,-1.58838,9.67437,-0.0016499,0.00523379,0.00348076
735,-9.15653,12.3562,-158.465,-2.12729,-1.55063,9.79078,0.00261115,-0.00754938,-0.000780302
736,-9.15596,12.3578,-158.465,-2.15391,-1.50601,9.75882,-0.00697623,-0.00435359,0.000284962
737,-9.15411,12.3579,-158.465,-2.16121,-1.53458,9.72063,-0.00058464,-0.00541885,0.000284962
738,-9.15351,12.3576,-158.465,-2.15204,-1.50419,9.74613,-0.00058464,-0.0150062,-0.00504136
739,-9.1525,12.3576,-158.465,-2.12882,-1.52864,9.76196,0.00580695,-0.00328832,0.00241549
740,-9.15205,12.3574,-158.466,-2.15814,-1.59826,9.73279,-0.0016499,0.00416853,0.00135023
741,-9.15292,12.3583,-158.466,-2.19256,-1.5632,9.83137,0.000480625,-0.00541885,-0.000780302
742,-9.1533,12.3579,-158.467,-2.1634,-1.58351,9.7221,0.00580695,0.0116254,-0.000780302
743,-9.15317,12.3581,-158.466,-2.17056,-1.576,9.72043,0.00154589,0.00523379,-0.00184557
744,-9.15488,12.3586,-158.467,-2.24673,-1.57218,9.81385,-0.00271517,-0.00435359,0.00561128
745,-9.1563,12.3591,-158.465,-2.14951,-1.62246,9.78869,0.00154589,-0.00754938,-0.0039761
746,-9.1581,12.3599,-158.467,-2.16553,-1.60724,9.76001,0.00154589,0.00416853,-0.000780302
747,-9.15821,12.3599,-158.467,-2.16139,-1.55996,9.71681,-0.00271517,0.000972733,0.00241549
748,-9.15899,12.3601,-158.467,-2.16693,-1.56892,9.7295,0.00367642,0.002038,-0.00504136
749,-9.16055,12.3607,-158.467,-2.19841,-1.66053,9.75095,0.00154589,0.000972733,0.00135023
750,-9.16043,12.3617,-158.466,-2.18469,-1.5374,9.71546,0.000480625,0.002038,-0.00184557
751,-9.16072,12.3625,-158.467,-2.12219,-1.61227,9.75037,-0.0016499,0.00310326,0.00135023
752,-9.16005,12.3625,-158.467,-2.13843,-1.583,9.80336,-0.00271517,0.000972733,0.000284962
753,-9.16075,12.3617,-158.466,-2.19249,-1.58822,9.76411,-0.00058464,-0.00754938,-0.000780302
754,-9.15981,12.3624,-158.467,-2.11792,-1.51634,9.76917,0.00580695,0.00949485,0.000284962
755,-9.15947,12.363,-158.467,-2.19412,-1.58432,9.7261,0.00261115,0.0148212,0.00667655
756,-9.16012,12.3634,-158.466,-2.23383,-1.55249,9.78484,-0.0016499,-0.00541885,-0.00184557
757,-9.16086,12.3628,-158.466,-2.19825,-1.61545,9.79842,-0.0016499,-0.0011578,0.00135023
758,-9.1603,12.3625,-158.466,-2.13609,-1.55358,9.7238,0.00261115,-0.0011578,0.00774181
759,-9.16075,12.3614,-158.465,-2.09502,-1.61303,9.72646,-0.0016499,-0.0011578,-0.00291083
760,-9.16056,12.3603,-158.466,-2.1142,-1.51991,9.73647,0.00367642,-0.00435359,0.00454602
761,-9.16033,12.3598,-158.467,-2.18309,-1.57902,9.68612,-0.00058464,-0.00435359,0.00135023
762,-9.16,12.3603,-158.469,-2.15073,-1.55697,9.76746,-0.00591096,-0.00328832,0.00667655
763,-9.15932,12.3612,-158.469,-2.14727,-1.57884,9.76362,-0.00378043,0.00523379,-0.000780302
764,-9.15863,12.3612,-158.468,-2.19352,-1.53682,9.66664,0.00154589,-0.00435359,-0.00504136
765,-9.15903,12.3621,-158.468,-2.18508,-1.57563,9.74055,-0.00910675,0.00310326,0.00667655
766,-9.16077,12.3645,-158.468,-2.17463,-1.59987,9.7928,-0.00591096,-0.00648412,0.00241549
767,-9.16074,12.3662,-158.469,-2.17931,-1.53404,9.73174,-0.00058464,-0.00328832,-0.00291083
768,-9.16057,12.3661,-158.468,-2.16021,-1.595,9.80898,-0.0048457,0.00416853,0.00880708
769,-9.16093,12.3658,-158.468,-2.17097,-1.61606,9.74732,0.00367642,-0.00435359,0.00135023
770,-9.16246,12.3654,-158.468,-2.17291,-1.61799,9.77814,0.000480625,0.00523379,0.00454602
771,-9.16363,12.3655,-158.468,-2.0897,-1.62053,9.73721,-0.00271517,-0.00541885,-0.00291083
772,-9.16421,12.3662,-158.469,-2.13843,-1.6135,9.74331,-0.00378043,0.00310326,0.00135023
773,-9.16511,12.365,-158.469,-2.14198,-1.58638,9.78162,0.000480625,0.00416853,0.00241549
774,-9.1674,12.3652,-158.469,-2.22524,-1.62697,9.74972,0.00261115,0.00310326,0.00241549
775,-9.16711,12.3639,-158.469,-2.15619,-1.55687,9.78022,0.00474168,-0.00541885,-0.0039761
776,-9.16775,12.3639,-158.468,-2.10005,-1.55848,9.736,-0.0048457,0.00629906,-0.00717189
777,-9.16723,12.3632,-158.469,-2.17791,-1.57775,9.75132,0.00154589,-0.00541885,0.000284962
778,-9.16546,12.3623,-158.468,-2.14358,-1.57706,9.74728,-0.00697623,0.00416853,0.0109376
779,-9.16447,12.3623,-158.467,-2.16569,-1.61106,9.79261,0.000480625,0.00310326,-0.000780302
780,-9.16404,12.3613,-158.467,-2.12907,-1.56848,9.74897,0.00261115,-0.00435359,-0.0039761
781,-9.165,12.3596,-158.466,-2.1017,-1.51156,9.78895,-0.00058464,0.002038,-0.000780302
782,-9.16412,12.3598,-158.466,-2.19061,-1.58997,9.74232,0.000480625,-0.00328832,0.00135023
783,-9.1642,12.3599,-158.466,-2.18321,-1.58458,9.70783,-0.00591096,0.00523379,-0.0039761
784,-9.16453,12.359,-158.466,-2.15642,-1.59306,9.76544,-0.00058464,-0.00541885,-0.000780302
785,-9.16477,12.3591,-158.466,-2.1471,-1.56066,9.75651,-0.00271517,0.00416853,0.00241549
786,-9.16494,12.3575,-158.466,-2.10368,-1.553,9.75059,0.000480625,-0.00435359,-0.00504136
787,-9.16585,12.3562,-158.466,-2.12936,-1.60118,9.75779,0.00154589,0.002038,-0.00291083
788,-9.16476,12.3561,-158.466,-2.15919,-1.50922,9.71717,0.000480625,0.000972733,0.00135023
789,-9.16677,12.3556,-158.466,-2.13124,-1.59584,9.78686,-0.00271517,0.00523379,0.00348076
790,-9.1659,12.3553,-158.467,-2.1564,-1.59304,9.76181,-0.00058464,-0.00328832,0.00348076
791,-9.16545,12.3574,-158.467,-2.26251,-1.57096,9.69261,-0.00378043,0.000972733,-0.00184557
792,-9.16535,12.3585,-158.466,-2.17825,-1.62487,9.74372,0.000480625,0.000972733,0.00454602
793,-9.16522,12.3586,-158.467,-2.1308,-1.54139,9.78183,-0.00271517,0.00310326,0.00454602
794,-9.16474,12.3592,-158.467,-2.18507,-1.5828,9.72418,0.00261115,0.002038,0.00561128
795,-9.165,12.3594,-158.466,-2.18286,-1.53384,9.71728,0.00367642,0.00310326,0.00880708
796,-9.16481,12.359,-158.466,-2.15078,-1.58217,9.73101,-0.00271517,0.00629906,0.00348076
797,-9.1654,12.3589,-158.466,-2.16532,-1.58541,9.74748,0.00367642,0.002038,-0.0039761
798,-9.16641,12.3593,-158.467,-2.11899,-1.65602,9.76812,0.00261115,0.00523379,-0.000780302
799,-9.16725,12.3597,-158.467,-2.16708,-1.55658,9.79304,-0.0016499,0.002038,0.00241549
800,-9.16709,12.3602,-158.467,-2.0986,-1.56982,9.80478,-0.00058464,0.000972733,-0.00823715
801,-9.16655,12.3587,-158.466,-2.10919,-1.55475,9.77058,0.000480625,0.00523379,-0.00291083
802,-9.16826,12.3585,-158.466,-2.14544,-1.60398,9.70722,0.00261115,-0.00435359,-0.00184557
803,-9.16983,12.358,-158.466,-2.14929,-1.61318,9.7507,0.00261115,0.002038,0.000284962
804,-9.17108,12.3572,-158.466,-2.17658,-1.62154,9.78541,-0.00058464,0.000972733,0.00561128
805,-9.17099,12.3576,-158.465,-2.19948,-1.54997,9.77899,-0.0048457,0.000972733,0.00774181
806,-9.17037,12.357,-158.465,-2.19592,-1.57887,9.73522,-0.0016499,-0.00435359,0.00561128
807,-9.16937,12.358,-158.464,-2.1852,-1.55966,9.80412,-0.0016499,-0.00541885,0.00135023
808,-9.16959,12.3598,-158.464,-2.17593,-1.5614,9.73692,0.00154589,0.00736432,0.00348076
809,-9.16996,12.3593,-158.464,-2.1416,-1.53561,9.78563,-0.00591096,0.000972733,0.00348076
810,-9.17002,12.3585,-158.465,-2.17064,-1.57254,9.74946,0.00580695,0.00310326,-0.00184557
811,-9.16898,12.3583,-158.465,-2.12547,-1.52734,9.83263,-0.00058464,0.00416853,0.000284962
812,-9.16832,12.358,-158.465,-2.21938,-1.57448,9.73917,0.000480625,0.0105601,-0.00504136
813,-9.16913,12.3578,-158.465,-2.13297,-1.59568,9.76875,-0.00591096,-0.0118104,0.000284962
814,-9.16926,12.357,-158.465,-2.14304,-1.50632,9.74962,-0.00378043,-0.0107452,-0.0039761
815,-9.16825,12.3576,-158.466,-2.24723,-1.61595,9.85521,-0.00378043,0.00523379,0.00135023
816,-9.16915,12.3574,-158.466,-2.17776,-1.57395,9.72054,0.00261115,-0.00541885,0.00135023
817,-9.16981,12.3591,-158.466,-2.15668,-1.63112,9.7579,-0.00271517,0.000972733,-0.000780302
818,-9.17173,12.3586,-158.467,-2.04447,-1.56269,9.82953,-0.00910675,0.0116254,0.00241549
819,-9.17289,12.3596,-158.467,-2.22395,-1.67083,9.7965,-0.00058464,-0.0011578,-0.00184557
820,-9.17299,12.3597,-158.467,-2.1527,-1.59842,9.7291,0.00367642,-0.00435359,-0.0039761
821,-9.1729,12.3613,-158.467,-2.17089,-1.59621,9.7656,-0.00910675,-0.0011578,-0.00717189
822,-9.17495,12.3622,-158.468,-2.23253,-1.61964,9.78068,0.00154589,0.000972733,0.00454602
823,-9.175,12.3628,-158.469,-2.09834,-1.5533,9.77046,0.00367642,-0.00328832,0.00135023
824,-9.17415,12.3625,-158.468,-2.15631,-1.58574,9.75281,-0.00058464,0.00416853,-0.00717189
825,-9.17367,12.3618,-158.468,-2.16334,-1.55652,9.76218,-0.00271517,0.00310326,0.00241549
826,-9.17369,12.3628,-158.469,-2.2322,-1.5851,9.76644,0.00687221,-0.0011578,-0.00291083
827,-9.17477,12.3615,-158.468,-2.12568,-1.58506,9.77237,-0.00058464,0.00523379,-0.0039761
828,-9.17489,12.3615,-158.469,-2.18171,-1.58507,9.78394,0.00261115,-0.0011578,0.000284962
829,-9.17589,12.3613,-158.469,-2.1307,-1.55022,9.73826,0.00261115,0.00523379,0.000284962
830,-9.17475,12.3613,-158.469,-2.15102,-1.58072,9.79628,0.00154589,-0.00648412,-0.000780302
831,-9.17333,12.3604,-158.469,-2.15498,-1.61518,9.81601,0.00154589,-0.00648412,-0.000780302
832,-9.17313,12.3597,-158.468,-2.19584,-1.56082,9.75168,0.00154589,0.00736432,0.000284962
833,-9.17301,12.3601,-158.469,-2.17094,-1.5909,9.7892,0.00474168,0.002038,0.00135023
834,-9.17316,12.3607,-158.469,-2.17062,-1.5743,9.74038,-0.0016499,0.00416853,-0.00184557
835,-9.17377,12.3613,-158.469,-2.12544,-1.55063,9.77988,0.000480625,0.00416853,-0.00184557
836,-9.17335,12.3628,-158.469,-2.14327,-1.53176,9.75668,-0.0016499,0.00416853,0.00241549
837,-9.17224,12.3632,-158.47,-2.15228,-1.52606,9.76409,-0.0016499,-0.00648412,0.00241549
838,-9.17276,12.3637,-158.47,-2.22537,-1.61818,9.80055,-0.00058464,0.00416853,0.00454602
839,-9.1741,12.3644,-158.47,-2.18378,-1.62128,9.78188,-0.0048457,-0.00328832,0.00135023
840,-9.17503,12.3638,-158.47,-2.14381,-1.57738,9.80528,-0.0016499,-0.0011578,0.00135023
841,-9.17524,12.3644,-158.47,-2.22489,-1.57803,9.75734,-0.0016499,-0.00435359,-0.00504136
842,-9.17523,12.3651,-158.471,-2.18544,-1.58333,9.81844,0.00367642,0.00310326,-0.00184557
843,-9.17604,12.365,-158.471,-2.16728,-1.58378,9.79102,0.00261115,0.00416853,0.00135023
844,-9.17618,12.3651,-158.471,-2.17611,-1.5814,9.74402,0.000480625,-0.00435359,0.00561128
845,-9.17562,12.3644,-158.47,-2.19189,-1.51022,9.7647,0.00154589,0.000972733,0.000284962
846,-9.17541,12.3653,-158.471,-2.23391,-1.57234,9.76656,0.00580695,-0.00541885,-0.00504136
847,-9.17562,12.3653,-158.471,-2.17452,-1.59253,9.77836,-0.00271517,-0.00328832,0.00135023
848,-9.17589,12.3644,-158.471,-2.13816,-1.58978,9.71992,0.00367642,0.000972733,-0.00184557
849,-9.1765,12.3652,-158.471,-2.16208,-1.62374,9.7689,-0.00058464,-0.0011578,-0.00504136
850,-9.17537,12.3655,-158.471,-2.20117,-1.54078,9.76821,-0.00378043,0.00736432,-0.00717189
851,-9.17488,12.3642,-158.471,-2.17427,-1.58141,9.73494,0.00367642,0.00310326,0.00667655
852,-9.1743,12.3644,-158.471,-2.1738,-1.5305,9.71538,0.00367642,0.002038,0.000284962
853,-9.17347,12.3627,-158.471,-2.15279,-1.57163,9.80362,0.00261115,-0.00328832,0.00241549
854,-9.17259,12.3633,-158.471,-2.18556,-1.60683,9.80376,-0.00058464,-0.00648412,-0.000780302
855,-9.17419,12.3629,-158.471,-2.1729,-1.60721,9.79635,-0.00271517,0.00629906,0.00135023
856,-9.17384,12.3622,-158.471,-2.14909,-1.56266,9.80002,-0.00697623,-0.00541885,-0.00504136
857,-9.17572,12.362,-158.471,-2.19383,-1.54264,9.73366,-0.00697623,-0.00435359,-0.00184557
858,-9.17575,12.3616,-158.471,-2.13292,-1.60099,9.74515,-0.00058464,0.00416853,0.00454602
859,-9.1771,12.3633,-158.471,-2.19076,-1.60095,9.75856,-0.00058464,-0.0011578,0.00135023
860,-9.1777,12.3633,-158.472,-2.17454,-1.60153,9.7656,-0.0016499,-0.00328832,-0.000780302
861,-9.17811,12.3636,-158.472,-2.15495,-1.63128,9.776,0.00261115,0.000972733,-0.00291083
862,-9.17805,12.3641,-158.471,-2.17799,-1.59938,9.72759,-0.00271517,-0.00328832,0.00241549
863,-9.1797,12.3661,-158.472,-2.13476,-1.60456,9.74514,-0.00378043,0.000972733,0.00454602
864,-9.17935,12.3677,-158.472,-2.15226,-1.54037,9.72954,-0.00058464,0.0126906,0.00561128
865,-9.17915,12.3679,-158.471,-2.18356,-1.57611,9.81485,0.000480625,0.00416853,0.00135023
866,-9.17802,12.3675,-158.471,-2.19068,-1.58828,9.76409,0.000480625,0.00416853,0.00348076
867,-9.17818,12.3686,-158.472,-2.12023,-1.60133,9.73049,0.000480625,0.00310326,0.00561128
868,-9.17786,12.3683,-158.472,-2.19745,-1.54971,9.72278,0.000480625,-0.00435359,0.00241549
869,-9.17685,12.3685,-158.471,-2.16201,-1.60749,9.78171,0.00261115,-0.00328832,0.00454602
870,-9.17628,12.369,-158.472,-2.14702,-1.52107,9.813,-0.00058464,0.00523379,-0.00504136
871,-9.17594,12.3692,-158.472,-2.19783,-1.55384,9.81157,-0.00058464,0.000972733,-0.000780302
872,-9.17545,12.3701,-158.472,-2.19229,-1.55205,9.78433,-0.00058464,0.0126906,-0.00184557
873,-9.17475,12.3697,-158.472,-2.18688,-1.58094,9.72785,-0.0016499,0.00629906,0.00241549
874,-9.17395,12.37,-158.472,-2.16902,-1.57466,9.79293,0.00154589,0.00523379,0.00880708
875,-9.17441,12.3696,-158.471,-2.10385,-1.58196,9.73768,-0.00058464,-0.0011578,-0.00291083
876,-9.17336,12.3712,-158.471,-2.16738,-1.59468,9.79457,-0.0016499,0.00310326,0.00774181
877,-9.17324,12.371,-158.471,-2.16313,-1.5311,9.75693,-0.00271517,-0.0011578,0.00241549
878,-9.17319,12.37,-158.471,-2.15057,-1.52087,9.79855,-0.0016499,0.002038,0.00241549
879,-9.17333,12.3696,-158.471,-2.14896,-1.56427,9.76375,0.00261115,-0.00648412,0.000284962
880,-9.17301,12.3695,-158.471,-2.17046,-1.56689,9.71325,0.00154589,0.00949485,-0.00184557
881,-9.17236,12.37,-158.471,-2.23007,-1.52549,9.80131,0.00367642,-0.0107452,-0.00823715
882,-9.17209,12.3714,-158.471,-2.13132,-1.587,9.8268,0.000480625,-0.00328832,-0.00504136
883,-9.17244,12.3713,-158.471,-2.17805,-1.57975,9.78394,0.00154589,-0.0011578,-0.000780302
884,-9.17271,12.3714,-158.471,-2.15077,-1.58395,9.72556,0.000480625,0.002038,0.000284962
885,-9.17378,12.3713,-158.471,-2.18692,-1.56666,9.76783,-0.00058464,0.00629906,0.000284962
886,-9.17398,12.3705,-158.471,-2.14733,-1.59149,9.75446,-0.0048457,-0.0011578,-0.000780302
887,-9.17335,12.3705,-158.472,-2.15411,-1.54397,9.73497,0.00261115,0.00310326,0.00454602
888,-9.17329,12.3703,-158.472,-2.15076,-1.55881,9.77107,0.000480625,-0.00435359,0.00241549
889,-9.17398,12.3701,-158.473,-2.22695,-1.59627,9.78623,-0.0048457,-0.0118104,-0.00291083
890,-9.17441,12.3666,-158.473,-2.14571,-1.58643,9.81249,0.000480625,0.00523379,0.00241549
891,-9.17311,12.3669,-158.473,-2.16652,-1.50375,9.75356,0.00367642,0.00310326,0.00880708
892,-9.17202,12.3664,-158.472,-2.15973,-1.54228,9.78943,0.000480625,-0.0011578,-0.000780302
893,-9.17072,12.3668,-158.473,-2.19262,-1.56868,9.83677,-0.00378043,0.000972733,-0.000780302
894,-9.17034,12.3661,-158.472,-2.18881,-1.58824,9.74594,-0.00058464,-0.00754938,0.00241549
895,-9.16783,12.3661,-158.473,-2.22272,-1.51836,9.78134,-0.00058464,-0.00541885,0.00348076
896,-9.16819,12.3638,-158.474,-2.15582,-1.55992,9.67868,0.00261115,-0.00541885,0.00348076
897,-9.16826,12.3642,-158.474,-2.11146,-1.62353,9.75377,-0.00378043,0.00310326,0.00667655
898,-9.1689,12.3651,-158.474,-2.16624,-1.63158,9.89396,-0.00058464,0.000972733,0.00561128
899,-9.16881,12.3621,-158.474,-2.13608,-1.5733,9.68196,0.000480625,-0.0011578,0.00348076
900,-9.17194,12.3634,-158.474,-2.11683,-1.57485,9.83941,0.000480625,-0.0011578,0.00135023
901,-9.17074,12.363,-158.474,-2.24482,-1.58823,9.75389,-0.00058464,0.002038,-0.00291083
902,-9.17325,12.3637,-158.475,-2.19596,-1.57176,9.76066,-0.00058464,-0.0118104,-0.00930242
903,-9.17447,12.3641,-158.474,-2.15508,-1.6512,9.77042,0.00474168,0.002038,0.00348076
904,-9.17259,12.3647,-158.474,-2.16309,-1.5131,9.78245,-0.00058464,0.00736432,0.000284962
905,-9.17314,12.3651,-158.474,-2.16711,-1.56918,9.77663,-0.00271517,-0.0011578,-0.000780302
906,-9.17284,12.3646,-158.475,-2.13629,-1.58078,9.72178,-0.00271517,-0.00967991,-0.00504136
907,-9.17174,12.3653,-158.475,-2.17944,-1.56653,9.70249,-0.00058464,0.00310326,-0.000780302
908,-9.1709,12.3655,-158.475,-2.18324,-1.56667,9.74966,-0.00804149,-0.0011578,0.00241549
909,-9.17195,12.3664,-158.475,-2.13449,-1.59341,9.6981,-0.00910675,-0.00541885,-0.00717189
910,-9.17304,12.3678,-158.476,-2.20281,-1.53868,9.72837,0.00261115,-0.00435359,-0.000780302
911,-9.17142,12.3675,-158.475,-2.13432,-1.54831,9.74376,0.00261115,-0.00435359,0.000284962
912,-9.17047,12.3687,-158.476,-2.17233,-1.56154,9.7405,0.00154589,-0.00541885,-0.00717189
913,-9.16996,12.3687,-158.476,-2.16537,-1.60163,9.72923,-0.00271517,-0.00328832,0.00774181
914,-9.1703,12.3669,-158.476,-2.18,-1.59962,9.78018,0.000480625,-0.0011578,-0.0039761
915,-9.16989,12.3664,-158.475,-2.19994,-1.59729,9.80583,0.000480625,-0.00328832,-0.00504136
916,-9.16925,12.3664,-158.475,-2.10372,-1.54588,9.77421,0.00154589,0.000972733,-0.00291083
917,-9.16944,12.3656,-158.475,-2.11838,-1.57083,9.77964,0.00154589,-0.00541885,-0.0039761
918,-9.17005,12.3646,-158.476,-2.19112,-1.62479,9.80369,-0.00378043,0.00416853,-0.00717189
919,-9.1704,12.3658,-158.476,-2.18169,-1.59043,9.7694,-0.00271517,0.0105601,0.00135023
920,-9.17098,12.3658,-158.476,-2.19283,-1.65509,9.71829,0.000480625,-0.00754938,-0.000780302
921,-9.1718,12.3664,-158.478,-2.22023,-1.62953,9.85115,0.00261115,0.000972733,-0.00291083
922,-9.17258,12.3674,-158.477,-2.19438,-1.59546,9.77133,-0.0016499,0.00310326,-0.0039761
923,-9.17332,12.3679,-158.478,-2.16344,-1.58357,9.73297,0.00367642,-0.00328832,-0.000780302
924,-9.17186,12.3677,-158.479,-2.18332,-1.56141,9.78052,0.00261115,0.000972733,-0.00717189
925,-9.17277,12.368,-158.479,-2.19061,-1.59714,9.72596,0.00154589,-0.00328832,0.00454602
926,-9.17166,12.3691,-158.479,-2.17235,-1.55978,9.74958,0.00154589,0.00629906,-0.000780302
927,-9.17042,12.3685,-158.479,-2.17398,-1.55408,9.7152,0.00154589,0.000972733,0.00135023
928,-9.17004,12.3679,-158.479,-2.16676,-1.5597,9.70419,-0.0016499,0.002038,0.00241549
929,-9.16832,12.3689,-158.479,-2.1163,-1.54,9.77078,-0.00058464,0.00629906,0.00561128
930,-9.1665,12.3689,-158.477,-2.16154,-1.55479,9.7658,0.000480625,0.00310326,-0.00184557
931,-9.16643,12.3693,-158.477,-2.16303,-1.53633,9.72064,-0.00271517,-0.0011578,0.000284962
932,-9.16564,12.3687,-158.477,-2.1363,-1.56466,9.75816,-0.00058464,-0.00541885,-0.00184557
933,-9.16607,12.3685,-158.478,-2.18879,-1.58463,9.74959,-0.00271517,-0.0107452,-0.0039761
934,-9.16632,12.369,-158.479,-2.16027,-1.63635,9.74159,-0.00271517,-0.00541885,-0.00717189
935,-9.16671,12.3691,-158.479,-2.20116,-1.54974,9.7482,-0.00378043,0.00310326,-0.00184557
936,-9.16668,12.3697,-158.479,-2.10225,-1.60025,9.75384,0.00154589,-0.0011578,0.00454602
937,-9.1676,12.3684,-158.479,-2.13482,-1.59568,9.77965,-0.00271517,-0.0011578,0.000284962
938,-9.16843,12.3688,-158.479,-2.11686,-1.61436,9.76841,-0.0048457,-0.00541885,-0.00184557
939,-9.16948,12.3689,-158.48,-2.14399,-1.61173,9.78327,0.00367642,0.002038,0.00561128
940,-9.16955,12.3681,-158.48,-2.18205,-1.62323,9.79634,0.00367642,0.000972733,-0.00291083
941,-9.16953,12.3679,-158.479,-2.12005,-1.57057,9.74522,-0.0016499,0.00629906,0.00561128
942,-9.16897,12.3674,-158.478,-2.17096,-1.59811,9.78008,-0.00378043,0.000972733,0.00987234
943,-9.16966,12.367,-158.478,-2.19098,-1.60306,9.81111,-0.00058464,-0.00328832,0.00135023
944,-9.17045,12.3672,-158.478,-2.11812,-1.55431,9.74532,0.00261115,0.000972733,-0.00184557
945,-9.17026,12.3675,-158.479,-2.17236,-1.55621,9.76048,-0.0016499,-0.0118104,-0.0039761
946,-9.16979,12.3673,-158.478,-2.16381,-1.60563,9.78537,-0.0016499,-0.0011578,0.00135023
947,-9.16843,12.3681,-158.479,-2.17579,-1.53071,9.76253,-0.00058464,0.000972733,0.00241549
948,-9.16752,12.3681,-158.479,-2.13117,-1.59575,9.77054,-0.00591096,0.00629906,0.00561128
949,-9.16721,12.3692,-158.479,-2.1597,-1.57813,9.71122,0.00261115,0.002038,0.00348076
950,-9.16757,12.3696,-158.479,-2.16545,-1.60354,9.74553,-0.0016499,0.000972733,0.00241549
951,-9.16688,12.3702,-158.479,-2.2388,-1.5104,9.7526,-0.00271517,0.000972733,-0.00184557
952,-9.16604,12.3708,-158.479,-2.18307,-1.56643,9.70616,0.00154589,0.00416853,0.00348076
953,-9.16548,12.3702,-158.48,-2.1436,-1.57528,9.75454,-0.00058464,0.00523379,0.00135023
954,-9.16509,12.3703,-158.48,-2.11837,-1.56902,9.78146,0.00261115,-0.00328832,-0.00184557
955,-9.16345,12.3699,-158.48,-2.19374,-1.52458,9.7483,-0.0016499,0.002038,-0.000780302
956,-9.16457,12.371,-158.48,-2.12595,-1.61595,9.7812,0.00367642,-0.0011578,-0.00504136
957,-9.16487,12.3711,-158.481,-2.15067,-1.55151,9.76387,-0.0048457,-0.00754938,-0.00717189
958,-9.1657,12.3715,-158.482,-2.14375,-1.60959,9.72528,0.00367642,-0.00541885,-0.00717189
959,-9.16665,12.3712,-158.482,-2.20295,-1.54785,9.74643,0.000480625,0.00523379,0.00241549
960,-9.16816,12.3703,-158.482,-2.16372,-1.62344,9.72542,0.00261115,0.00523379,-0.00504136
961,-9.16919,12.3697,-158.482,-2.16542,-1.60888,9.72737,0.00687221,0.00842958,0.00348076
962,-9.17026,12.3689,-158.483,-2.12709,-1.55035,9.74003,-0.00271517,-0.00648412,-0.00504136
963,-9.16951,12.3686,-158.483,-2.18013,-1.60699,9.80007,0.00793748,0.00523379,0.00241549
964,-9.16908,12.3688,-158.483,-2.13826,-1.57021,9.78714,0.000480625,-0.00541885,-0.00291083
965,-9.16891,12.3675,-158.483,-2.1487,-1.54416,9.73672,0.00261115,0.000972733,-0.0039761
966,-9.1679,12.3687,-158.483,-2.19039,-1.56813,9.72799,0.00367642,0.0126906,-0.00717189
967,-9.16867,12.3683,-158.483,-2.18698,-1.57392,9.76959,-0.00058464,-0.00435359,0.00135023
968,-9.16783,12.3687,-158.483,-2.15791,-1.52259,9.82581,-0.00271517,0.00310326,-0.00184557
969,-9.16756,12.3674,-158.483,-2.14341,-1.56964,9.71833,-0.0016499,-0.00435359,-0.000780302
970,-9.167,12.3674,-158.483,-2.16106,-1.50925,9.7317,-0.00378043,0.00310326,-0.00291083
971,-9.1657,12.3673,-158.483,-2.14527,-1.53916,9.7929,0.00261115,-0.0011578,-0.00717189
972,-9.16579,12.3678,-158.483,-2.13804,-1.57526,9.71822,-0.00591096,0.000972733,0.00348076
973,-9.16497,12.3669,-158.483,-2.187,-1.56677,9.78777,-0.00804149,0.00629906,0.000284962
974,-9.16428,12.3669,-158.483,-2.15444,-1.56418,9.78014,0.000480625,0.002038,-0.000780302
975,-9.16352,12.3676,-158.483,-2.18667,-1.54835,9.73897,-0.00058464,-0.00541885,0.000284962
976,-9.16314,12.3687,-158.483,-2.18553,-1.61934,9.77104,-0.0016499,0.00629906,-0.00291083
977,-9.16494,12.3703,-158.483,-2.18501,-1.53606,9.80067,-0.00271517,0.00949485,-0.000780302
978,-9.16475,12.3713,-158.484,-2.19984,-1.60431,9.76408,0.00154589,0.00416853,-0.0039761
979,-9.16447,12.3703,-158.484,-2.1204,-1.59978,9.77763,0.00154589,-0.00754938,0.00348076
980,-9.16447,12.3698,-158.484,-2.15301,-1.62038,9.76338,-0.0048457,0.00310326,0.000284962
981,-9.16477,12.3694,-158.485,-2.13126,-1.60843,9.76682,0.00687221,-0.00754938,-0.00823715
982,-9.16506,12.369,-158.485,-2.1509,-1.57696,9.77275,-0.0016499,0.002038,-0.00717189
983,-9.1645,12.3691,-158.485,-2.1848,-1.52141,9.7754,0.00154589,-0.00328832,-0.00184557
984,-9.16491,12.3691,-158.485,-2.15304,-1.61146,9.78882,0.00154589,0.000972733,0.000284962
985,-9.16529,12.3699,-158.485,-2.17086,-1.60514,9.74015,-0.00058464,0.00416853,0.00135023
986,-9.16528,12.3704,-158.485,-2.20306,-1.56595,9.73904,0.00261115,-0.00754938,-0.0039761
987,-9.16677,12.3724,-158.486,-2.20146,-1.56989,9.7843,-0.0016499,0.000972733,0.00241549
988,-9.16515,12.3734,-158.485,-2.15617,-1.59092,9.70745,-0.0048457,0.00629906,-0.0103677
989,-9.16499,12.373,-158.485,-2.10893,-1.52388,9.76538,-0.00271517,0.00523379,-0.000780302
990,-9.16223,12.3726,-158.485,-2.13462,-1.54696,9.82534,0.00793748,-0.00754938,0.00348076
991,-9.16115,12.3721,-158.485,-2.16474,-1.47874,9.81173,0.00154589,0.002038,-0.000780302
992,-9.15994,12.3722,-158.485,-2.18538,-1.60656,9.75663,0.00154589,0.00949485,-0.00291083
993,-9.15848,12.372,-158.487,-2.23365,-1.53608,9.77046,-0.0016499,0.00416853,-0.00291083
994,-9.15867,12.3715,-158.487,-2.10241,-1.60945,9.77733,-0.0016499,0.002038,0.00241549
995,-9.15969,12.3706,-158.487,-2.18705,-1.5794,9.7768,-0.00271517,0.002038,-0.000780302
996,-9.1602,12.3717,-158.486,-2.19279,-1.603,9.81113,0.00154589,0.002038,-0.0039761
997,-9.16243,12.3728,-158.486,-2.14023,-1.60984,9.7488,0.00154589,0.0105601,0.00454602
998,-9.16363,12.3723,-158.487,-2.1616,-1.55308,9.78394,-0.00591096,-0.00328832,0.000284962
999,-9.16279,12.3714,-158.487,-2.13437,-1.53763,9.78009,-0.0016499,-0.00648412,-0.0039761
